"Time (s)","Linear Acceleration x (m/s^2)","Linear Acceleration y (m/s^2)","Linear Acceleration z (m/s^2)","Absolute acceleration (m/s^2)"
3.417765700E-2,0.000000000E0,0.000000000E0,0.000000000E0,0.000000000E0
3.873093800E-2,-1.344147325E-2,-2.043145895E-2,-1.029682159E-2,2.653567886E-2
4.328343800E-2,-4.426144809E-2,-4.497867823E-2,-1.567554474E-2,6.502214995E-2
4.783682400E-2,-4.034881294E-2,-5.931288004E-2,3.581047058E-3,7.182526256E-2
5.239083400E-2,-6.457664818E-2,-7.577902079E-2,1.935195923E-2,1.014253509E-1
5.694411500E-2,-8.732110262E-2,-8.980250359E-2,-2.477645874E-3,1.252820951E-1
6.149661500E-2,-8.264653385E-2,-8.289873600E-2,-1.500606537E-2,1.180162361E-1
6.604994900E-2,-5.988180637E-2,-6.911051273E-2,-3.038215637E-2,9.635958245E-2
7.060401100E-2,-2.904000878E-2,-5.456018448E-2,-6.785964966E-2,9.178816859E-2
7.515729200E-2,-2.294994891E-2,-5.779489875E-2,-1.110076904E-1,1.272385862E-1
7.970979200E-2,-5.060885102E-2,-8.106631041E-2,-1.926651001E-1,2.150647421E-1
8.426312600E-2,-6.125663221E-2,-1.005850732E-1,-2.778987885E-1,3.018235719E-1
8.881718800E-2,-4.511976987E-2,-8.362033963E-2,-3.298130035E-1,3.432269980E-1
9.337046900E-2,-1.468943805E-2,-6.347483397E-2,-3.533258438E-1,3.592825991E-1
9.792296900E-2,7.182434201E-4,-2.439939976E-2,-3.279571533E-1,3.288643200E-1
1.024763030E-1,6.781600416E-3,2.582752705E-2,-2.630109787E-1,2.643630575E-1
1.070303130E-1,4.479433596E-2,6.428334117E-2,-1.803865433E-1,1.966677032E-1
1.115836460E-1,7.945027947E-2,1.122183204E-1,-1.007118225E-1,1.704352356E-1
1.161360940E-1,1.317373663E-1,1.192205846E-1,3.946304321E-3,1.777184706E-1
1.206894800E-1,1.513480246E-1,1.622555256E-1,4.430198669E-2,2.262647700E-1
1.252434900E-1,1.791248918E-1,1.804860532E-1,4.868030548E-2,2.589029054E-1
1.297967710E-1,2.286043018E-1,1.591984034E-1,5.526351929E-2,2.840037236E-1
1.343492710E-1,2.348709852E-1,1.756740808E-1,9.032249451E-3,2.934405287E-1
1.389026050E-1,2.522324324E-1,1.482757330E-1,-3.985214233E-2,2.952881409E-1
1.434566670E-1,2.454836518E-1,1.248441935E-1,-1.465978622E-1,3.119923543E-1
1.480099490E-1,2.196933031E-1,1.029345691E-1,-2.633008957E-1,3.580335663E-1
1.525624490E-1,2.254910171E-1,3.418102860E-2,-3.438386917E-1,4.126010027E-1
1.571157820E-1,1.663199961E-1,-1.302903891E-2,-3.712263107E-1,4.069902588E-1
1.616698440E-1,1.314444840E-1,-4.439812899E-2,-3.473176956E-1,3.740032459E-1
1.662231260E-1,9.677257389E-2,-6.515634060E-2,-3.246183395E-1,3.449454249E-1
1.707756260E-1,1.110597551E-1,-4.827642441E-2,-2.543668747E-1,2.817221846E-1
1.753289590E-1,1.221873760E-1,-3.246101737E-2,-1.726350784E-1,2.139774353E-1
1.798829690E-1,1.791024804E-1,2.132102847E-2,-6.333541870E-2,1.911639611E-1
1.844363030E-1,1.947349310E-1,3.519913554E-2,5.435657501E-2,2.052201494E-1
1.889888030E-1,1.980714500E-1,7.964253426E-2,1.455516815E-1,2.583805808E-1
1.935421360E-1,2.196440995E-1,1.119472086E-1,2.018289566E-1,3.186073378E-1
1.980961460E-1,2.449713647E-1,1.279895008E-1,1.916112900E-1,3.363140917E-1
2.026494280E-1,2.740414739E-1,1.376936138E-1,1.375856400E-1,3.361369795E-1
2.072019280E-1,2.860282063E-1,1.392208338E-1,5.477046967E-2,3.227915422E-1
2.117553130E-1,2.884259224E-1,1.260954142E-1,-4.915237427E-3,3.148233246E-1
2.163093240E-1,2.862416804E-1,1.408351362E-1,-3.277873993E-2,3.206918785E-1
2.208626050E-1,2.727326155E-1,1.362884343E-1,-4.830837250E-2,3.086929149E-1
2.254151050E-1,2.646078169E-1,1.621375680E-1,-5.648708344E-2,3.154309407E-1
2.299684380E-1,2.454149276E-1,1.966691911E-1,-5.515289307E-2,3.192946900E-1
2.345225010E-1,2.553113699E-1,2.516913414E-1,-1.287546158E-1,3.809332986E-1
2.390757820E-1,2.165312171E-1,2.730785608E-1,-1.797676086E-1,3.921403594E-1
2.436282820E-1,2.120305449E-1,2.759399712E-1,-2.157573700E-1,4.094521491E-1
2.481816150E-1,1.826191247E-1,2.702476680E-1,-2.628488541E-1,4.188950547E-1
2.527356260E-1,1.499204338E-1,2.748112082E-1,-2.716274261E-1,4.144620553E-1
2.572889590E-1,1.536104679E-1,2.192395627E-1,-2.944545746E-1,3.979518290E-1
2.618414590E-1,1.552675217E-1,2.054299712E-1,-2.911806107E-1,3.887102062E-1
2.663947920E-1,1.405148208E-1,1.598713696E-1,-3.256616592E-1,3.890485651E-1
2.709488030E-1,1.233963519E-1,1.041491330E-1,-3.572893143E-1,3.920833529E-1
2.755020840E-1,1.059538797E-1,9.941673279E-2,-4.049139023E-1,4.301920265E-1
2.800545840E-1,4.337412119E-2,9.289523959E-2,-3.766403198E-1,3.903444254E-1
2.846079170E-1,2.113687247E-2,1.102462709E-1,-3.489971161E-1,3.666060483E-1
2.891619800E-1,2.682087570E-2,1.178781688E-1,-2.749204636E-1,3.003262948E-1
2.937152610E-1,8.327275515E-3,1.697750390E-1,-1.833734512E-1,2.500374572E-1
2.982677610E-1,-1.266097277E-2,1.825622022E-1,-1.263303757E-1,2.223704606E-1
3.028210940E-1,6.403721869E-3,2.109079361E-1,-4.200363159E-2,2.151452306E-1
3.073751570E-1,4.370002449E-2,2.380403578E-1,1.743030548E-2,2.426452547E-1
3.119284380E-1,6.374879181E-2,2.333320975E-1,2.886199951E-2,2.435996536E-1
3.164809380E-1,8.600417525E-2,2.255404890E-1,9.541511536E-3,2.415704261E-1
3.210342710E-1,1.175626591E-1,2.360153496E-1,-1.179981232E-2,2.639383633E-1
3.255882820E-1,1.136422977E-1,2.198222578E-1,-4.221534729E-2,2.510349226E-1
3.301416150E-1,1.101309136E-1,2.197731137E-1,-5.565929413E-2,2.520456242E-1
3.346941150E-1,1.326817572E-1,2.098589838E-1,-7.596492767E-2,2.596457433E-1
3.392474490E-1,1.571846604E-1,2.209752202E-1,-1.054010391E-1,2.909406202E-1
3.438014590E-1,1.835767329E-1,2.318114936E-1,-1.344213486E-1,3.248170014E-1
3.483547400E-1,1.671356410E-1,2.683750391E-1,-1.960697174E-1,3.720252924E-1
3.529072400E-1,1.770961583E-1,2.855458856E-1,-2.238607407E-1,4.037488492E-1
3.574605740E-1,1.823742092E-1,3.000043035E-1,-1.946706772E-1,4.014468917E-1
3.620146360E-1,1.712950766E-1,2.999896109E-1,-1.777114868E-1,3.884805561E-1
3.665679170E-1,1.604958922E-1,3.046331704E-1,-1.492052078E-1,3.752632329E-1
3.711204170E-1,1.523790956E-1,3.209028840E-1,-1.565113068E-1,3.881930433E-1
3.756737510E-1,1.045630574E-1,3.392046094E-1,-1.920795441E-1,4.035935471E-1
3.802277610E-1,5.768860877E-2,3.312328458E-1,-2.295761108E-1,4.071220510E-1
3.847810940E-1,1.155376434E-2,3.399519920E-1,-2.170238495E-1,4.034850649E-1
3.893335940E-1,-3.645639867E-2,3.298800588E-1,-2.164831161E-1,3.962510085E-1
3.938869280E-1,-7.695318013E-2,2.705869079E-1,-2.514343262E-1,3.773039716E-1
3.984409380E-1,-1.147811115E-1,2.501047254E-1,-2.883625031E-1,3.985975544E-1
4.029942190E-1,-1.333944947E-1,1.852824688E-1,-3.154411316E-1,3.893928504E-1
4.075467190E-1,-1.567340344E-1,1.545933485E-1,-2.831497192E-1,3.586619919E-1
4.121001050E-1,-1.517546326E-1,1.246266961E-1,-2.181959152E-1,2.935485297E-1
4.166541150E-1,-1.261047125E-1,9.762203693E-2,-1.658668518E-1,2.300962258E-1
4.212073960E-1,-1.412278712E-1,8.783310652E-2,-1.023588181E-1,1.952877206E-1
4.257598960E-1,-1.114028767E-1,1.091970205E-1,-7.508850098E-2,1.731267547E-1
4.303132300E-1,-1.102477312E-1,1.045885086E-1,-7.181167603E-2,1.680780628E-1
4.348672920E-1,-9.248716384E-2,1.169928312E-1,-3.311252594E-2,1.527666109E-1
4.394205740E-1,-6.071835011E-2,8.690518141E-2,-1.616001129E-2,1.072397993E-1
4.439730740E-1,-4.117005318E-2,9.992468357E-2,1.242923737E-2,1.087860359E-1
4.485264070E-1,8.856326342E-3,6.795704365E-2,5.963897705E-2,9.084823543E-2
4.530804170E-1,9.848112613E-2,6.942576170E-2,1.418571472E-1,1.861233967E-1
4.576337510E-1,2.012816072E-1,6.130516529E-2,2.090215683E-1,2.965849367E-1
4.621862510E-1,2.390290201E-1,5.316078663E-2,2.684078217E-1,3.633231350E-1
4.667395840E-1,2.761952877E-1,4.730093479E-2,2.869634628E-1,4.010850837E-1
4.712935940E-1,2.939060628E-1,4.854381084E-2,2.911558151E-1,4.165440961E-1
4.758468760E-1,2.900491059E-1,3.081828356E-2,2.906026840E-1,4.117379875E-1
4.803993760E-1,2.885722518E-1,2.026015520E-2,2.782497406E-1,4.013817840E-1
4.849527090E-1,2.609537542E-1,-2.098798752E-3,3.063259125E-1,4.024137565E-1
4.895067710E-1,2.430248260E-1,-2.446073294E-2,3.389062881E-1,4.177521582E-1
4.940600530E-1,2.439311296E-1,-4.935878515E-2,3.830766678E-1,4.568220869E-1
4.986125530E-1,1.969715208E-1,-6.260848045E-2,4.221487045E-1,4.700288614E-1
5.031658860E-1,1.974813044E-1,-8.575823903E-2,3.779811859E-1,4.349978368E-1
5.077198960E-1,1.741788387E-1,-9.738793969E-2,3.390455246E-1,3.934139632E-1
5.122732300E-1,1.677392721E-1,-9.760653973E-2,2.839479446E-1,3.439330389E-1
5.168257300E-1,1.497759670E-1,-7.692921162E-2,2.388944626E-1,2.922695813E-1
5.213790630E-1,1.489996314E-1,-7.099694014E-2,1.942949295E-1,2.549352375E-1
5.259330740E-1,1.249476969E-1,-4.874259233E-2,1.477584839E-1,1.995503366E-1
5.304863550E-1,1.253581345E-1,-2.922290564E-2,8.506202698E-2,1.542860607E-1
5.350388550E-1,1.026905030E-1,-1.941323280E-2,3.715991974E-2,1.109192168E-1
5.395922400E-1,9.999953210E-2,-7.261216640E-3,3.901481628E-3,1.003386927E-1
5.441462510E-1,1.240693927E-1,2.844798565E-2,-6.074905396E-4,1.272904990E-1
5.486995320E-1,1.080834121E-1,3.059351444E-2,4.947185516E-2,1.227414011E-1
5.532520320E-1,6.645196676E-2,5.159819126E-2,4.930973053E-2,9.751762278E-2
5.578053650E-1,1.819720864E-2,2.957111597E-2,5.391025543E-2,6.412413698E-2
5.623594280E-1,-2.493724227E-2,1.944190264E-2,3.476428986E-2,4.699371745E-2
5.669127090E-1,-5.605541170E-2,2.186119556E-3,1.561164856E-3,5.611974283E-2
5.714652090E-1,-7.315958291E-2,-5.313396454E-3,-7.633209229E-3,7.374837379E-2
5.760185420E-1,-1.051340103E-1,-4.099357128E-2,-2.387046814E-2,1.153405057E-1
5.805725530E-1,-9.025374055E-2,-6.180042028E-2,-6.370735168E-2,1.265845816E-1
5.851258340E-1,-1.117932796E-1,-4.412829876E-2,-6.288242340E-2,1.356438104E-1
5.896783340E-1,-1.668547392E-1,-3.796583414E-2,-8.344364166E-2,1.903805397E-1
5.942317190E-1,-1.956628859E-1,4.345476627E-3,-8.488464355E-2,2.133266294E-1
5.987857300E-1,-2.244727612E-1,5.645489693E-2,-1.753997803E-2,2.321267471E-1
6.033390110E-1,-2.582326531E-1,1.160682440E-1,2.309417725E-2,2.840585880E-1
6.078915110E-1,-2.660970092E-1,1.499541998E-1,1.131706238E-1,3.257322066E-1
6.124448440E-1,-2.862411141E-1,1.748266816E-1,1.739768982E-1,3.778442869E-1
6.169989070E-1,-2.996850312E-1,1.360750794E-1,2.318687439E-1,4.026048429E-1
6.215521880E-1,-2.567106187E-1,8.864384890E-2,3.201045990E-1,4.197916483E-1
6.261046880E-1,-2.334440351E-1,1.866281033E-3,3.862152100E-1,4.512890303E-1
6.306580210E-1,-1.964588165E-1,-9.539645910E-2,4.066534042E-1,4.615880655E-1
6.352120320E-1,-1.198327020E-1,-2.387554049E-1,4.482488632E-1,5.218151619E-1
6.397653650E-1,-6.570884585E-2,-3.662919700E-1,5.037231445E-1,6.262782657E-1
6.443178650E-1,-3.170061111E-2,-4.923711419E-1,5.872030258E-1,7.669691413E-1
6.488711990E-1,-1.064014435E-2,-5.956983566E-1,6.652421951E-1,8.930380300E-1
6.534252090E-1,3.328345716E-2,-6.623877883E-1,7.616262436E-1,1.009920742E0
6.579784900E-1,6.450785697E-2,-7.593486905E-1,8.501091003E-1,1.141690492E0
6.625309900E-1,9.053529799E-2,-8.296527863E-1,9.212779999E-1,1.243090318E0
6.670843240E-1,9.987400472E-2,-8.523292542E-1,9.562950134E-1,1.284889150E0
6.716383860E-1,1.143488884E-1,-9.039818048E-1,9.934368134E-1,1.348026511E0
6.761916670E-1,1.267541051E-1,-9.109234810E-1,1.030315399E0,1.381085809E0
6.807441670E-1,1.345211267E-1,-9.470899105E-1,1.114395142E0,1.468656449E0
6.852975010E-1,1.162261367E-1,-9.668812752E-1,1.159844398E0,1.514465894E0
6.898515630E-1,8.632367849E-2,-1.005863667E0,1.162227631E0,1.539476066E0
6.944048440E-1,7.377046347E-2,-1.013880968E0,1.114765167E0,1.508674278E0
6.989573440E-1,3.372412920E-2,-1.005374432E0,1.048704147E0,1.453167387E0
7.035106780E-1,1.679280400E-2,-9.804265499E-1,1.011633873E0,1.408872354E0
7.080646880E-1,-5.411416292E-3,-9.391760826E-1,9.772014618E-1,1.355361094E0
7.126180210E-1,-2.803987265E-2,-9.054898024E-1,9.477548599E-1,1.311082488E0
7.171704690E-1,-1.328381896E-2,-9.197580814E-1,9.019050598E-1,1.288240709E0
7.217238550E-1,7.656157017E-3,-9.246411324E-1,8.516578674E-1,1.257116130E0
7.262778650E-1,5.383560061E-2,-9.416922331E-1,8.017950058E-1,1.237965171E0
7.308311460E-1,8.956775069E-2,-9.660134315E-1,6.597671509E-1,1.173242100E0
7.353836460E-1,9.127178788E-2,-9.715024829E-1,5.283784866E-1,1.109653747E0
7.399369800E-1,6.359398365E-2,-9.939129353E-1,4.051837921E-1,1.075212083E0
7.444910420E-1,3.723007441E-2,-9.807853699E-1,2.663955688E-1,1.017001779E0
7.490443240E-1,-2.857069671E-2,-9.799242616E-1,1.501235962E-1,9.917685906E-1
7.535968240E-1,-3.884866834E-2,-9.747811556E-1,6.094264984E-2,9.774566624E-1
7.581501570E-1,-4.428330064E-2,-9.680430293E-1,-6.094932556E-3,9.690745407E-1
7.627042190E-1,-6.423057616E-2,-9.955950975E-1,-8.674907684E-2,1.001429262E0
7.672575010E-1,-9.162500501E-2,-1.031101465E0,-1.476793289E-1,1.045645522E0
7.718098960E-1,-1.362301111E-1,-1.036583900E0,-2.388725281E-1,1.072438768E0
7.763632290E-1,-1.459772736E-1,-1.057543278E0,-3.315925598E-1,1.117882272E0
7.809172390E-1,-1.856174022E-1,-1.060626984E0,-4.092102051E-1,1.151883853E0
7.854705730E-1,-1.983429044E-1,-1.079087973E0,-4.908342361E-1,1.201952165E0
7.900230210E-1,-1.820598841E-1,-1.079684258E0,-5.503263474E-1,1.225448076E0
7.945764060E-1,-2.009628266E-1,-1.095676422E0,-5.855054855E-1,1.258455225E0
7.991304160E-1,-1.975295097E-1,-1.093879223E0,-6.345357895E-1,1.279931768E0
8.036836980E-1,-2.263025343E-1,-1.098105907E0,-6.925563812E-1,1.317832980E0
8.082361980E-1,-2.277480960E-1,-1.087110996E0,-7.310104370E-1,1.329682583E0
8.127895310E-1,-2.589934766E-1,-1.079894304E0,-7.761583328E-1,1.354869398E0
8.173435940E-1,-2.817766070E-1,-1.052633643E0,-8.184518814E-1,1.362827621E0
8.218968750E-1,-3.363887072E-1,-1.007750034E0,-8.816452026E-1,1.380585295E0
8.264493750E-1,-3.631834090E-1,-9.548234940E-1,-9.323387146E-1,1.383056605E0
8.310027080E-1,-3.861117363E-1,-9.032552242E-1,-9.540290833E-1,1.369351585E0
8.355567710E-1,-4.289243817E-1,-8.194833994E-1,-9.825592041E-1,1.349426455E0
8.401100520E-1,-4.839368463E-1,-7.554236054E-1,-1.048752785E0,1.380123943E0
8.446625520E-1,-5.125159621E-1,-6.961839795E-1,-1.121487617E0,1.416008199E0
8.492158850E-1,-5.303820372E-1,-6.575878859E-1,-1.194572449E0,1.463123463E0
8.537698960E-1,-5.193511248E-1,-6.275849938E-1,-1.205448151E0,1.454886167E0
8.583231770E-1,-4.915213287E-1,-5.820538998E-1,-1.228247643E0,1.445327724E0
8.628757290E-1,-4.660723209E-1,-5.731058717E-1,-1.267695427E0,1.467216904E0
8.674290620E-1,-4.666198492E-1,-5.669612885E-1,-1.299935341E0,1.492987300E0
8.719830730E-1,-4.357461929E-1,-5.685295463E-1,-1.289312363E0,1.474932866E0
8.765363540E-1,-4.187237918E-1,-5.991342664E-1,-1.276531219E0,1.470994030E0
8.810888540E-1,-3.846344650E-1,-5.991854668E-1,-1.283020020E0,1.467347016E0
8.856421870E-1,-3.552087545E-1,-6.306812167E-1,-1.268219948E0,1.460244463E0
8.901962500E-1,-3.115812242E-1,-6.672301292E-1,-1.244143486E0,1.445742687E0
8.947495310E-1,-2.633342743E-1,-7.088680863E-1,-1.191795349E0,1.411458486E0
8.993020310E-1,-2.319009006E-1,-7.795472145E-1,-1.132732391E0,1.394472860E0
9.038553640E-1,-1.931121945E-1,-8.459672332E-1,-1.066981316E0,1.375282519E0
9.084094270E-1,-1.373133659E-1,-9.012916088E-1,-9.850387573E-1,1.342193309E0
9.129627080E-1,-1.121415496E-1,-9.530535936E-1,-8.774414062E-1,1.300303926E0
9.175152080E-1,-9.608311951E-2,-1.018207431E0,-8.014249802E-1,1.299330727E0
9.220685410E-1,-1.251396984E-1,-1.094413757E0,-7.401418686E-1,1.327106402E0
9.266225520E-1,-1.708601117E-1,-1.164949894E0,-6.792163849E-1,1.359277871E0
9.311758850E-1,-2.381613851E-1,-1.222806931E0,-6.376733780E-1,1.399501687E0
9.357283850E-1,-3.292815089E-1,-1.289581180E0,-5.749330521E-1,1.449825488E0
9.402817190E-1,-4.202181697E-1,-1.329829931E0,-5.196504593E-1,1.488310302E0
9.448357290E-1,-5.228487849E-1,-1.348654747E0,-4.217729568E-1,1.506696023E0
9.493890100E-1,-6.062475443E-1,-1.384404659E0,-3.124485016E-1,1.543287534E0
9.539415100E-1,-6.873049736E-1,-1.396509528E0,-2.417240143E-1,1.575137292E0
9.584948960E-1,-7.446244955E-1,-1.387563109E0,-1.260633469E-1,1.579774981E0
9.630489060E-1,-7.924594879E-1,-1.379197240E0,-7.283210754E-2,1.592319560E0
9.676021870E-1,-8.139768839E-1,-1.330920696E0,-1.029586792E-2,1.560132774E0
9.721546870E-1,-7.969611883E-1,-1.295472622E0,1.624870300E-2,1.521072145E0
9.767080210E-1,-7.747728825E-1,-1.260826588E0,8.792972565E-2,1.482460232E0
9.812620830E-1,-7.687504292E-1,-1.196022511E0,1.164188385E-1,1.426534407E0
9.858153640E-1,-7.382644415E-1,-1.124748111E0,1.042823792E-1,1.349432293E0
9.903678640E-1,-6.975958347E-1,-1.068363428E0,8.980751038E-2,1.279103495E0
9.949211980E-1,-6.275673509E-1,-9.930257797E-1,8.964157104E-2,1.178124183E0
9.994752600E-1,-5.664026737E-1,-9.487901926E-1,7.037162781E-2,1.107233934E0
1.004028541E0,-4.855154753E-1,-8.686708212E-1,7.494831085E-2,9.979636875E-1
1.008581041E0,-3.896908760E-1,-7.693486214E-1,2.227115631E-2,8.627005764E-1
1.013134375E0,-3.027426600E-1,-7.102453113E-1,3.096580505E-3,7.720823202E-1
1.017688385E0,-2.150841206E-1,-6.481481791E-1,-6.372070312E-2,6.858699359E-1
1.022241719E0,-1.481435001E-1,-5.567657948E-1,-1.350946426E-1,5.917644880E-1
1.026794219E0,-9.699818492E-2,-4.766721129E-1,-1.943387985E-1,5.238248942E-1
1.031347552E0,-7.353311777E-2,-3.982322514E-1,-2.295980453E-1,4.655226180E-1
1.035901562E0,-5.407840014E-2,-3.502329588E-1,-2.600135803E-1,4.395391459E-1
1.040454896E0,-5.080312490E-2,-3.160219491E-1,-2.141246796E-1,3.850976606E-1
1.045007344E0,-6.148284674E-2,-2.889232635E-1,-2.161026001E-1,3.660015388E-1
1.049560729E0,-6.716564298E-2,-2.693305910E-1,-1.823310852E-1,3.321066327E-1
1.054114739E0,-8.482941985E-2,-2.768039107E-1,-1.176939011E-1,3.125192631E-1
1.058668021E0,-1.145991683E-1,-3.067219853E-1,-8.901309967E-2,3.393150123E-1
1.063220521E0,-1.376997232E-1,-3.354819417E-1,-6.513118744E-2,3.684445936E-1
1.067773906E0,-1.640233099E-1,-3.680638969E-1,-5.553817749E-2,4.067667238E-1
1.072327916E0,-2.174441069E-1,-3.663285077E-1,-8.399581909E-2,4.342048051E-1
1.076881198E0,-2.620108426E-1,-3.470953703E-1,-1.860809326E-1,4.730232459E-1
1.081433698E0,-2.951103449E-1,-2.937063277E-1,-2.828702927E-1,5.033578499E-1
1.085987031E0,-3.023877740E-1,-2.514668703E-1,-3.743982315E-1,5.429990686E-1
1.090541094E0,-3.029519916E-1,-2.034384906E-1,-4.368753433E-1,5.692338661E-1
1.095094375E0,-2.967121601E-1,-1.780234575E-1,-4.966506958E-1,6.053035363E-1
1.099646875E0,-2.882910669E-1,-1.488118470E-1,-5.418348312E-1,6.315391432E-1
1.104200208E0,-2.632817626E-1,-1.321811676E-1,-6.106281281E-1,6.779792463E-1
1.108754271E0,-2.453549504E-1,-1.114578545E-1,-6.528997421E-1,7.063285201E-1
1.113307552E0,-2.439509332E-1,-5.806526542E-2,-7.021265030E-1,7.455637190E-1
1.117860052E0,-2.446487546E-1,-2.185091376E-2,-7.416143417E-1,7.812312765E-1
1.122413385E0,-2.496533990E-1,2.140539885E-2,-7.261533737E-1,7.681690783E-1
1.126967448E0,-2.828326225E-1,7.416963577E-2,-7.584381104E-1,8.128491831E-1
1.131520729E0,-3.201908171E-1,9.617060423E-2,-7.882490158E-1,8.562169441E-1
1.136073229E0,-3.283536732E-1,1.113671064E-1,-8.132152557E-1,8.840462767E-1
1.140626562E0,-3.298621178E-1,1.362631321E-1,-8.274621964E-1,9.011494572E-1
1.145180573E0,-2.977902889E-1,1.548014283E-1,-8.772439957E-1,9.392547931E-1
1.149733906E0,-2.917387486E-1,1.695686579E-1,-9.029502869E-1,9.639420354E-1
1.154286406E0,-2.783253789E-1,1.592928171E-1,-9.451274872E-1,9.980506927E-1
1.158839739E0,-2.884620726E-1,1.788653731E-1,-9.822874069E-1,1.039274621E0
1.163393750E0,-3.102539182E-1,1.734619141E-1,-9.527740479E-1,1.016919326E0
1.167947031E0,-3.251156807E-1,1.648103595E-1,-9.401912689E-1,1.008376062E0
1.172499583E0,-3.358130753E-1,1.574723125E-1,-9.040374756E-1,9.771651385E-1
1.177052916E0,-3.355321288E-1,1.631929874E-1,-8.539905548E-1,9.319407858E-1
1.181606927E0,-3.551111221E-1,1.722120643E-1,-7.474451065E-1,8.452426228E-1
1.186160208E0,-3.658595085E-1,1.887651086E-1,-6.014556885E-1,7.288582794E-1
1.190712708E0,-3.985967934E-1,2.195356488E-1,-4.780292511E-1,6.599903558E-1
1.195266094E0,-3.840581477E-1,2.499020100E-1,-3.461179733E-1,5.742380402E-1
1.199820104E0,-3.820092082E-1,2.653614879E-1,-2.295045853E-1,5.186714847E-1
1.204373385E0,-3.519589901E-1,2.589212060E-1,-1.517925262E-1,4.625540970E-1
1.208925885E0,-3.178156018E-1,2.593447566E-1,-1.269044876E-1,4.293846859E-1
1.213479271E0,-3.009099960E-1,2.382052541E-1,-9.271049500E-2,3.948212313E-1
1.218033281E0,-2.391771972E-1,2.457737923E-1,-6.829357147E-2,3.496777095E-1
1.222586562E0,-1.732129157E-1,2.274969816E-1,-6.308269501E-2,2.928088407E-1
1.227139062E0,-1.100583076E-1,2.193937302E-1,-4.845905304E-2,2.501893678E-1
1.231692396E0,-6.845460832E-2,2.119926214E-1,-6.722068787E-2,2.326919118E-1
1.236246458E0,-2.921223640E-3,2.289621234E-1,-4.553508759E-2,2.334644121E-1
1.240799739E0,1.747864485E-2,2.224786878E-1,-3.118324280E-2,2.253323416E-1
1.245352239E0,2.149456739E-2,2.518969774E-1,2.008438110E-3,2.528203660E-1
1.249905573E0,4.459209740E-2,2.527439594E-1,3.966045380E-2,2.596938886E-1
1.254459635E0,6.267271936E-2,2.273091674E-1,8.175754547E-2,2.495628650E-1
1.259012916E0,8.047354221E-2,1.851395965E-1,1.092901230E-1,2.295582544E-1
1.263565416E0,7.642103732E-2,1.476263404E-1,1.271371841E-1,2.092787015E-1
1.268118750E0,6.724441051E-2,1.098297238E-1,1.401357651E-1,1.903218633E-1
1.272672812E0,6.695044041E-2,5.509018898E-2,1.554555893E-1,1.779992434E-1
1.277226094E0,6.818082929E-2,1.682341099E-2,1.801967621E-1,1.933973260E-1
1.281778594E0,6.136929989E-2,4.226684570E-3,2.047986984E-1,2.138377018E-1
1.286331927E0,3.493091464E-2,-1.128196716E-2,2.055253983E-1,2.087777309E-1
1.290885989E0,1.054197550E-3,-1.997387409E-2,1.896781921E-1,1.907298706E-1
1.295439271E0,-4.020297527E-2,-4.072612524E-2,2.048435211E-1,2.126870110E-1
1.299991771E0,-6.025707722E-2,-5.655774474E-2,1.937961578E-1,2.106813818E-1
1.304545104E0,-1.042710096E-1,-4.847005010E-2,1.828556061E-1,2.160045413E-1
1.309099166E0,-1.243735403E-1,-6.401243806E-2,1.553955078E-1,2.090792520E-1
1.313652448E0,-1.656416208E-1,-3.654205799E-2,1.684980392E-1,2.390900620E-1
1.318204948E0,-1.755884290E-1,7.695794106E-3,1.933326721E-1,2.612815411E-1
1.322758281E0,-1.806830466E-1,1.630401611E-2,2.060813904E-1,2.745573232E-1
1.327312344E0,-1.928244084E-1,4.652619362E-2,2.685384750E-1,3.338545368E-1
1.331865625E0,-2.002392411E-1,8.868533373E-2,3.257198334E-1,3.924974547E-1
1.336418125E0,-1.836484373E-1,9.990811348E-2,3.586769104E-1,4.151596147E-1
1.340971458E0,-1.099125594E-1,1.183035374E-1,4.103279114E-1,4.409597402E-1
1.345525521E0,-6.459262967E-2,1.318292022E-1,4.567794800E-1,4.797902038E-1
1.350078802E0,2.628156543E-2,1.239604950E-1,5.075616837E-1,5.231403136E-1
1.354631302E0,7.928803563E-2,1.256099939E-1,5.199289322E-1,5.407315024E-1
1.359184635E0,1.115124524E-1,8.212274313E-2,5.250415802E-1,5.429989253E-1
1.363738698E0,1.470181346E-1,1.301902533E-2,5.063362122E-1,5.274089368E-1
1.368291979E0,1.264925301E-1,-3.391143680E-2,4.806127548E-1,4.981354894E-1
1.372844479E0,1.003282666E-1,-3.506129980E-2,4.408044815E-1,4.534353832E-1
1.377397812E0,-5.283963680E-2,3.536003828E-2,3.941574097E-1,3.992523301E-1
1.381951875E0,-2.021023035E-1,1.226221919E-1,3.573408127E-1,4.284553646E-1
1.386505156E0,-3.814205527E-1,2.197411060E-1,3.160476685E-1,5.418984411E-1
1.391057656E0,-4.557820559E-1,2.675879598E-1,3.177785873E-1,6.167040045E-1
1.395610989E0,-4.785349369E-1,2.523920238E-1,3.242139816E-1,6.307234936E-1
1.400165052E0,-4.645104110E-1,2.291469574E-1,3.732957840E-1,6.384575102E-1
1.404718333E0,-3.617565334E-1,1.741853058E-1,4.409418106E-1,5.963539138E-1
1.409270833E0,-2.397640049E-1,1.159681976E-1,5.198936462E-1,5.841445064E-1
1.413824166E0,-6.773453951E-2,5.921280384E-2,6.575193405E-1,6.636458447E-1
1.418378229E0,1.136920452E-1,6.324291229E-3,8.058729172E-1,8.138777773E-1
1.422931510E0,2.666450143E-1,-6.642058492E-2,9.269018173E-1,9.667772425E-1
1.427484010E0,4.178493023E-1,-1.066652536E-1,1.030316353E0,1.116927617E0
1.432037344E0,5.296791792E-1,-1.835530698E-1,1.137620926E0,1.268240172E0
1.436591406E0,6.503061056E-1,-2.492281497E-1,1.265380859E0,1.444368866E0
1.441144687E0,7.468166351E-1,-3.349172175E-1,1.373090744E0,1.598525202E0
1.445697187E0,8.219994307E-1,-4.596637189E-1,1.501256943E0,1.772215057E0
1.450250521E0,8.998601437E-1,-5.737444758E-1,1.599892616E0,1.923171179E0
1.454804583E0,9.141950607E-1,-7.036740780E-1,1.671613693E0,2.031059368E0
1.459357864E0,9.533172250E-1,-8.447903991E-1,1.702411652E0,2.126191426E0
1.463910364E0,9.151221514E-1,-9.762048125E-1,1.713354111E0,2.173938062E0
1.468463698E0,8.617472649E-1,-1.143851042E0,1.652714729E0,2.186885807E0
1.473017760E0,8.097614050E-1,-1.233210206E0,1.597054482E0,2.174190415E0
1.477571041E0,7.375185490E-1,-1.318614244E0,1.536817551E0,2.155106800E0
1.482123541E0,6.497377157E-1,-1.385904670E0,1.424313545E0,2.090827570E0
1.486676875E0,5.703763962E-1,-1.439610839E0,1.297856331E0,2.020455309E0
1.491230937E0,4.707839489E-1,-1.453406096E0,1.143169403E0,1.908104580E0
1.495784219E0,3.726585209E-1,-1.477278113E0,9.746379852E-1,1.808630476E0
1.500336719E0,3.093956411E-1,-1.427480817E0,8.233089447E-1,1.676682666E0
1.504890052E0,2.119934559E-1,-1.389832377E0,6.485614777E-1,1.548291721E0
1.509444114E0,1.619433165E-1,-1.290286064E0,4.743099213E-1,1.384208679E0
1.513997396E0,9.968662262E-2,-1.221853614E0,3.220109940E-1,1.267499411E0
1.518549896E0,3.735828400E-2,-1.120084882E0,1.510429382E-1,1.130840286E0
1.523103229E0,-1.787412167E-2,-1.011489511E0,-3.595352173E-4,1.011647490E0
1.527657291E0,-5.914607644E-2,-8.865048289E-1,-1.250867844E-1,8.972378579E-1
1.532210573E0,-9.387946129E-2,-7.380934358E-1,-2.184295654E-1,7.754397128E-1
1.536763073E0,-1.152114868E-1,-6.234859228E-1,-3.448772430E-1,7.217677573E-1
1.541316406E0,-1.523529887E-1,-4.806166291E-1,-4.637517929E-1,6.850324830E-1
1.545870469E0,-1.365164965E-1,-3.619587123E-1,-5.726737976E-1,6.910905452E-1
1.550423750E0,-1.159701943E-1,-2.579132318E-1,-6.120214462E-1,6.741947580E-1
1.554976250E0,-7.469263673E-2,-1.971263587E-1,-6.249294281E-1,6.595260278E-1
1.559529635E0,-2.977064252E-2,-1.316985786E-1,-6.305599213E-1,6.448539533E-1
1.564083646E0,3.970131278E-3,-8.339297771E-2,-6.003084183E-1,6.060860894E-1
1.568636927E0,4.769697785E-2,-6.669519842E-2,-5.318994522E-1,5.381823840E-1
1.573189427E0,1.224665195E-1,-2.929918468E-2,-4.326143265E-1,4.505681370E-1
1.577742812E0,1.947371364E-1,-2.826362848E-3,-2.739295959E-1,3.361070724E-1
1.582296823E0,3.239935935E-1,-2.108849585E-2,-1.276121140E-1,3.488573131E-1
1.586850104E0,4.241235256E-1,-5.105207860E-2,3.021526337E-2,4.282523110E-1
1.591402656E0,5.334975123E-1,-9.296050668E-2,1.828060150E-1,5.715586502E-1
1.595955989E0,6.402183771E-1,-1.492233872E-1,2.442770004E-1,7.012976847E-1
1.600510000E0,7.300361991E-1,-1.957811117E-1,3.007869720E-1,8.134838033E-1
1.605063333E0,8.147679567E-1,-2.516447306E-1,3.714427948E-1,9.301299068E-1
1.609615833E0,8.966548443E-1,-3.331102133E-1,4.252004623E-1,1.046779708E0
1.614169166E0,9.805338979E-1,-4.443380237E-1,4.955272675E-1,1.185086612E0
1.618723177E0,1.078496933E0,-5.705535412E-1,5.346736908E-1,1.332127221E0
1.623276510E0,1.138406277E0,-7.018471956E-1,6.047716141E-1,1.467755784E0
1.627829010E0,1.194331527E0,-8.285582662E-1,6.794872284E-1,1.604568319E0
1.632382344E0,1.215763927E0,-8.981603384E-1,7.874412537E-1,1.704358427E0
1.636936406E0,1.210573077E0,-9.634721279E-1,9.356861115E-1,1.808113441E0
1.641489687E0,1.208028078E0,-1.005688667E0,1.038199425E0,1.883772698E0
1.646042187E0,1.187205195E0,-1.044065595E0,1.104641914E0,1.928668686E0
1.650595521E0,1.136944532E0,-1.071560025E0,1.127934456E0,1.926945742E0
1.655149583E0,1.124806762E0,-1.076208711E0,1.084318161E0,1.897145570E0
1.659702864E0,1.086764574E0,-1.079532385E0,9.978237152E-1,1.828141016E0
1.664255364E0,1.044367790E0,-1.064709306E0,8.470907211E-1,1.715188817E0
1.668808698E0,1.021601081E0,-1.057703614E0,6.394519806E-1,1.603528777E0
1.673362760E0,9.894453287E-1,-1.007984996E0,4.418888092E-1,1.479966733E0
1.677916041E0,9.405453205E-1,-9.654935598E-1,1.947202682E-1,1.361880794E0
1.682468541E0,9.032462239E-1,-9.177774191E-1,-4.463672638E-2,1.288472572E0
1.687021927E0,8.511000872E-1,-8.502572775E-1,-3.048391342E-1,1.241062325E0
1.691575937E0,8.317582011E-1,-7.627642751E-1,-5.762844086E-1,1.267175901E0
1.696129271E0,7.758668661E-1,-6.767141223E-1,-7.778129578E-1,1.290311743E0
1.700681771E0,7.838006616E-1,-5.777840018E-1,-9.740505219E-1,1.377298896E0
1.705235104E0,7.501131296E-1,-5.186185837E-1,-1.126820564E0,1.449606680E0
1.709789114E0,7.270818353E-1,-4.491594136E-1,-1.257711411E0,1.520601909E0
1.714342448E0,6.859236956E-1,-3.982838392E-1,-1.338141441E0,1.555552587E0
1.718894948E0,6.264634728E-1,-2.969549894E-1,-1.446989059E0,1.604498703E0
1.723448281E0,5.341044664E-1,-2.194515765E-1,-1.548371315E0,1.652537535E0
1.728002291E0,4.801934361E-1,-1.492231190E-1,-1.611278534E0,1.687919367E0
1.732555625E0,4.379295111E-1,-8.152808249E-2,-1.707397461E0,1.764549567E0
1.737108125E0,3.520633876E-1,-1.647169143E-2,-1.765044212E0,1.799889168E0
1.741661458E0,3.181203008E-1,2.685698867E-2,-1.808186531E0,1.836153685E0
1.746215521E0,2.759166360E-1,5.805905163E-2,-1.834477425E0,1.856019468E0
1.750768802E0,2.825832665E-1,9.376205504E-2,-1.829642296E0,1.853708595E0
1.755321302E0,2.806637287E-1,1.055333912E-1,-1.836726189E0,1.861040708E0
1.759874635E0,2.868925333E-1,1.389385015E-1,-1.831841469E0,1.859369355E0
1.764428698E0,3.107946515E-1,1.390835196E-1,-1.817411423E0,1.849032672E0
1.768981979E0,3.476597071E-1,1.346940100E-1,-1.783915520E0,1.822461064E0
1.773534479E0,3.713681102E-1,1.282749623E-1,-1.709933281E0,1.754491540E0
1.778087864E0,4.060424566E-1,1.079475880E-1,-1.607507706E0,1.661506600E0
1.782641875E0,4.421093464E-1,1.118760258E-1,-1.514896393E0,1.582051832E0
1.787195208E0,4.773428738E-1,1.256774068E-1,-1.398664474E0,1.483210485E0
1.791747708E0,5.070291758E-1,1.277893037E-1,-1.330471039E0,1.429532048E0
1.796301041E0,5.339564085E-1,1.374394298E-1,-1.257688522E0,1.373236856E0
1.800855052E0,5.631257296E-1,1.379008740E-1,-1.247159004E0,1.375330077E0
1.805408385E0,5.900323987E-1,1.197064072E-1,-1.196098328E0,1.339073958E0
1.809960885E0,6.243938208E-1,1.069345325E-1,-1.126095772E0,1.292050434E0
1.814514219E0,6.827874184E-1,6.621065736E-2,-1.049136162E0,1.253502771E0
1.819068281E0,7.006531358E-1,2.385997772E-2,-9.962606430E-1,1.218203343E0
1.823621562E0,7.209909558E-1,-5.790233612E-3,-9.912786484E-1,1.225762964E0
1.828174062E0,7.389617562E-1,-4.908111691E-2,-9.529142380E-1,1.206863281E0
1.832727396E0,7.592352033E-1,-6.540495157E-2,-9.075078964E-1,1.185025942E0
1.837281458E0,7.625455260E-1,-9.540581703E-2,-8.383674622E-1,1.137294136E0
1.841834739E0,8.084389567E-1,-1.365543753E-1,-7.646512985E-1,1.121120980E0
1.846387291E0,8.273723722E-1,-1.982093602E-1,-6.792097092E-1,1.088649540E0
1.850940625E0,8.671462536E-1,-2.611182630E-1,-6.154899597E-1,1.094967243E0
1.855494635E0,8.966172934E-1,-3.706847429E-1,-5.089902878E-1,1.095628068E0
1.860047969E0,9.136385322E-1,-4.267661273E-1,-3.979997635E-1,1.084098015E0
1.864600469E0,9.685775042E-1,-4.584116042E-1,-2.419443130E-1,1.098553882E0
1.869153802E0,1.001884699E0,-4.947604537E-1,-6.956768036E-2,1.119553714E0
1.873707864E0,1.008897901E0,-5.242497325E-1,1.000080109E-1,1.141365129E0
1.878261146E0,9.945608974E-1,-5.685415268E-1,2.620182037E-1,1.175178448E0
1.882813646E0,9.973900318E-1,-5.848515034E-1,3.711347580E-1,1.214322513E0
1.887366979E0,9.844189882E-1,-5.710769892E-1,4.179430008E-1,1.212388561E0
1.891921041E0,9.942047000E-1,-5.678658485E-1,4.240741730E-1,1.220964173E0
1.896474323E0,9.626247287E-1,-5.201776624E-1,4.302005768E-1,1.175714126E0
1.901026875E0,9.519488811E-1,-4.854569435E-1,3.957462311E-1,1.139513140E0
1.905580208E0,9.524177313E-1,-4.276996255E-1,3.470659256E-1,1.100218733E0
1.910134219E0,9.683951139E-1,-4.038642645E-1,2.627048492E-1,1.081623446E0
1.914687552E0,9.447739720E-1,-3.586912751E-1,1.212625504E-1,1.017822133E0
1.919240052E0,9.387750030E-1,-2.798588872E-1,-4.848480225E-2,9.808008355E-1
1.923793385E0,9.263262749E-1,-1.911556423E-1,-2.464761734E-1,9.774309956E-1
1.928347448E0,9.194356799E-1,-9.488259256E-2,-3.676147461E-1,9.947387986E-1
1.932900729E0,8.941122293E-1,1.399013400E-2,-4.669942856E-1,1.008819144E0
1.937453229E0,9.314572215E-1,9.262886643E-2,-5.327339172E-1,1.077032074E0
1.942006562E0,9.213013053E-1,1.578162014E-1,-6.102676392E-1,1.116301321E0
1.946560625E0,9.519223571E-1,2.597152889E-1,-6.398878098E-1,1.176037676E0
1.951113906E0,9.660393596E-1,3.623784781E-1,-6.670627594E-1,1.228626441E0
1.955666458E0,9.875674844E-1,4.439400136E-1,-6.798534393E-1,1.278504193E0
1.960219791E0,9.879041314E-1,5.258294940E-1,-6.711244583E-1,1.304936500E0
1.964773802E0,9.480042458E-1,5.793492794E-1,-6.170530319E-1,1.270870600E0
1.969327135E0,9.321930408E-1,6.279491782E-1,-5.559272766E-1,1.253937468E0
1.973879635E0,9.141010642E-1,6.666514277E-1,-5.116319656E-1,1.241681179E0
1.978432969E0,9.244434834E-1,7.000932097E-1,-4.888992310E-1,1.258470784E0
1.982987031E0,8.983150125E-1,7.019180059E-1,-4.614238739E-1,1.229866147E0
1.987540312E0,8.595026731E-1,7.105566263E-1,-4.554843903E-1,1.204616783E0
1.992092812E0,7.957701087E-1,6.946834326E-1,-4.304485321E-1,1.140666944E0
1.996646198E0,7.784692645E-1,6.734506488E-1,-4.150161743E-1,1.109859720E0
2.001200208E0,7.786797285E-1,6.636308432E-1,-3.757514954E-1,1.089925319E0
2.005753541E0,7.342876196E-1,6.510311365E-1,-3.580760956E-1,1.044623539E0
2.010306041E0,7.288415432E-1,6.403725743E-1,-3.500051498E-1,1.031402266E0
2.014859375E0,7.431567311E-1,6.436918974E-1,-3.395853043E-1,1.040163143E0
2.019413437E0,7.605328560E-1,6.325232983E-1,-3.125028610E-1,1.037378420E0
2.023966719E0,7.548666596E-1,6.523653269E-1,-2.640237808E-1,1.032042998E0
2.028519219E0,7.837845087E-1,6.698325872E-1,-2.085151672E-1,1.051889931E0
2.033072552E0,8.022263050E-1,6.754304767E-1,-1.268901825E-1,1.056349607E0
2.037626614E0,8.440232277E-1,6.692404747E-1,-8.127307892E-2,1.080214486E0
2.042179896E0,8.901882172E-1,6.441262960E-1,-1.666831970E-2,1.098913818E0
2.046732448E0,9.194425344E-1,6.002382636E-1,3.823471069E-2,1.098691240E0
2.051285781E0,9.273217320E-1,5.710973740E-1,9.062099457E-2,1.092835747E0
2.055839791E0,9.640078545E-1,5.374068022E-1,1.787014008E-1,1.118056978E0
2.060393125E0,9.507035613E-1,4.850139618E-1,2.212209702E-1,1.089960789E0
2.064945625E0,9.543098807E-1,4.258412123E-1,2.922925949E-1,1.085118909E0
2.069498958E0,9.700698853E-1,3.908885717E-1,3.608160019E-1,1.106353309E0
2.074053021E0,9.741326571E-1,3.514507413E-1,4.053125381E-1,1.112083770E0
2.078606302E0,9.831286669E-1,3.361337185E-1,4.688110352E-1,1.139873519E0
2.083158802E0,1.020811558E0,2.970240116E-1,5.512714386E-1,1.197572419E0
2.087712187E0,1.070407271E0,2.223472148E-1,6.216135025E-1,1.257622104E0
2.092266198E0,1.117566347E0,1.694831848E-1,6.798629761E-1,1.319049945E0
2.096819531E0,1.157735467E0,1.050652713E-1,7.021732330E-1,1.358100649E0
2.101372031E0,1.205416799E0,6.737388670E-2,7.101078033E-1,1.400650560E0
2.105925364E0,1.198513746E0,1.565307379E-2,7.323560715E-1,1.404644309E0
2.110479427E0,1.225375414E0,-2.146981657E-2,8.023118973E-1,1.464824303E0
2.115032708E0,1.221243024E0,-6.329268217E-2,8.291444778E-1,1.477471168E0
2.119585208E0,1.217164993E0,-1.170791313E-1,8.702516556E-1,1.500845125E0
2.124138594E0,1.187096000E0,-1.590894908E-1,8.515939713E-1,1.469598132E0
2.128692604E0,1.155186057E0,-1.585291326E-1,8.568725586E-1,1.447002728E0
2.133245937E0,1.111997724E0,-1.634611785E-1,8.287372589E-1,1.396446898E0
2.137798437E0,1.072044611E0,-1.715398729E-1,8.078546524E-1,1.353268161E0
2.142351771E0,1.013888717E0,-1.541587114E-1,7.512311935E-1,1.271252746E0
2.146905833E0,9.496154189E-1,-1.398602426E-1,7.114686966E-1,1.194787863E0
2.151459114E0,8.817871213E-1,-1.118679419E-1,6.001930237E-1,1.072517892E0
2.156011614E0,8.106303811E-1,-7.243178785E-2,4.772434235E-1,9.434666204E-1
2.160565000E0,7.243770957E-1,2.520263195E-3,3.498106003E-1,8.044227648E-1
2.165119010E0,6.064544916E-1,9.875360131E-2,2.250680923E-1,6.543660828E-1
2.169672344E0,4.540470839E-1,2.453171909E-1,8.389282227E-2,5.228549360E-1
2.174224844E0,3.525840342E-1,4.023906291E-1,-2.833747864E-2,5.357580911E-1
2.178778177E0,2.584919930E-1,5.254092216E-1,-1.785640717E-1,6.121748838E-1
2.183332239E0,2.573869824E-1,5.576905608E-1,-2.974824905E-1,6.824680597E-1
2.187885521E0,2.892104983E-1,5.356816053E-1,-3.827772141E-1,7.191077042E-1
2.192438021E0,3.824890852E-1,5.074712038E-1,-3.819932938E-1,7.414470982E-1
2.196991406E0,4.986159503E-1,4.515875578E-1,-3.478393555E-1,7.573251650E-1
2.201545416E0,6.397604942E-1,3.893591464E-1,-2.732086182E-1,7.972057350E-1
2.206098750E0,7.772639394E-1,2.823156416E-1,-1.247377396E-1,8.363018932E-1
2.210651250E0,8.945783973E-1,2.230744511E-1,6.401634216E-2,9.241919777E-1
2.215204583E0,9.692494273E-1,1.693980694E-1,2.484502792E-1,1.014823975E0
2.219758646E0,1.033601284E0,1.173419952E-1,4.218988419E-1,1.122541487E0
2.224311927E0,1.047316670E0,1.044753790E-1,5.820884705E-1,1.202752801E0
2.228864427E0,1.036693335E0,8.042766154E-2,7.243862152E-1,1.267255723E0
2.233417812E0,1.006237268E0,3.780665621E-2,8.560571671E-1,1.321656785E0
2.237971823E0,1.012506962E0,-2.841577679E-2,1.036499023E0,1.449243951E0
2.242525156E0,1.073839664E0,-1.777024269E-1,1.191740036E0,1.613987017E0
2.247077656E0,1.123049498E0,-3.647767901E-1,1.348081589E0,1.792101072E0
2.251630989E0,1.240573406E0,-5.921387076E-1,1.479402542E0,2.019475800E0
2.256185052E0,1.361323833E0,-8.245400786E-1,1.588268280E0,2.248480609E0
2.260738333E0,1.449320793E0,-1.026004672E0,1.726081848E0,2.476403621E0
2.265290833E0,1.474709034E0,-1.225359201E0,1.844479561E0,2.660521896E0
2.269844219E0,1.452229857E0,-1.379805446E0,1.945883751E0,2.792722363E0
2.274398229E0,1.416199923E0,-1.496671438E0,2.008842468E0,2.877689295E0
2.278951562E0,1.369831324E0,-1.590650558E0,2.035819054E0,2.924237725E0
2.283504062E0,1.285505176E0,-1.642744303E0,2.036437035E0,2.915168639E0
2.288057396E0,1.223950267E0,-1.672304273E0,1.984473228E0,2.869283853E0
2.292611458E0,1.116774797E0,-1.664987326E0,1.865704536E0,2.738653348E0
2.297164739E0,1.029400706E0,-1.599251747E0,1.646825790E0,2.515811429E0
2.301717291E0,9.381434917E-1,-1.541677713E0,1.456994057E0,2.319421278E0
2.306270625E0,8.572384119E-1,-1.506235719E0,1.183920860E0,2.098874065E0
2.310824687E0,7.601805925E-1,-1.413457036E0,8.994312286E-1,1.839758642E0
2.315377969E0,6.516137719E-1,-1.317589998E0,5.414752960E-1,1.566473558E0
2.319930469E0,5.648220778E-1,-1.232018709E0,2.081317902E-1,1.371208562E0
2.324483854E0,4.923714697E-1,-1.163111448E0,-1.269035339E-1,1.269394506E0
2.329037864E0,4.530529678E-1,-1.098333836E0,-3.895921707E-1,1.250350457E0
2.333591198E0,4.274072647E-1,-1.044168472E0,-6.182813644E-1,1.286559992E0
2.338143698E0,4.437216818E-1,-9.740455747E-1,-7.605009079E-1,1.313017648E0
2.342697031E0,4.466498196E-1,-8.927211761E-1,-8.594131470E-1,1.317208456E0
2.347251094E0,4.813641906E-1,-8.195402622E-1,-8.792848587E-1,1.294797122E0
2.351804375E0,4.973114729E-1,-7.547579408E-1,-8.919239044E-1,1.269845070E0
2.356356875E0,5.132985711E-1,-6.915239096E-1,-8.663024902E-1,1.221540317E0
2.360910260E0,5.097258091E-1,-6.326131225E-1,-8.431005478E-1,1.170828039E0
2.365464323E0,5.171236396E-1,-6.000072956E-1,-7.721691132E-1,1.106196525E0
2.370017604E0,5.278623104E-1,-5.677706599E-1,-7.157001495E-1,1.055096605E0
2.374570104E0,5.606567264E-1,-5.625049472E-1,-6.736736298E-1,1.041433598E0
2.379123437E0,5.746505857E-1,-5.818860531E-1,-6.460647583E-1,1.042216075E0
2.383677500E0,6.271455884E-1,-5.975994468E-1,-6.256799698E-1,1.068602879E0
2.388230781E0,6.558133960E-1,-6.288138628E-1,-5.910120010E-1,1.083878808E0
2.392783333E0,7.202473283E-1,-6.661727428E-1,-5.277547836E-1,1.114032068E0
2.397336666E0,7.582369447E-1,-6.762422323E-1,-5.028257370E-1,1.133605109E0
2.401890729E0,8.294913769E-1,-6.852982044E-1,-4.659900665E-1,1.172534143E0
2.406444010E0,9.053547382E-1,-7.312814593E-1,-4.721879959E-1,1.255946368E0
2.410996510E0,9.477829933E-1,-7.732542753E-1,-4.568433762E-1,1.305726100E0
2.415549896E0,1.016606569E0,-8.444021940E-1,-4.343185425E-1,1.391091866E0
2.420103906E0,1.095177531E0,-9.180238843E-1,-4.165573120E-1,1.488523319E0
2.424657239E0,1.150330305E0,-1.003234386E0,-4.107141495E-1,1.580640743E0
2.429209739E0,1.189832926E0,-1.085584402E0,-3.952627182E-1,1.658441588E0
2.433763073E0,1.207154751E0,-1.150603533E0,-3.702239990E-1,1.708267219E0
2.438317135E0,1.195669651E0,-1.183837056E0,-3.236789703E-1,1.713436362E0
2.442870416E0,1.167985916E0,-1.221168518E0,-2.532863617E-1,1.708683011E0
2.447422969E0,1.110128760E0,-1.219656587E0,-2.140302658E-1,1.663056526E0
2.451976302E0,1.074963212E0,-1.246140003E0,-1.724300385E-1,1.654733493E0
2.456530364E0,1.022114396E0,-1.247907043E0,-1.523876190E-1,1.620250540E0
2.461083646E0,9.494452477E-1,-1.253651381E0,-1.753730774E-1,1.582353873E0
2.465636146E0,8.789188862E-1,-1.227419376E0,-2.317724228E-1,1.527342525E0
2.470189531E0,8.417322636E-1,-1.209919930E0,-2.976560593E-1,1.503668371E0
2.474743541E0,7.612783313E-1,-1.169909000E0,-3.586854935E-1,1.441140885E0
2.479296875E0,7.089489102E-1,-1.155179024E0,-4.530878067E-1,1.429103109E0
2.483849375E0,6.030914783E-1,-1.127514005E0,-5.330333710E-1,1.385327303E0
2.488402708E0,5.103353262E-1,-1.067603946E0,-6.248245239E-1,1.338142749E0
2.492956771E0,4.068762362E-1,-1.028101444E0,-7.045631409E-1,1.311087362E0
2.497510104E0,3.260516524E-1,-9.756304622E-1,-7.842102051E-1,1.293503044E0
2.502062604E0,2.439825982E-1,-9.365360737E-1,-8.398838043E-1,1.281418015E0
2.506615937E0,1.845517009E-1,-8.679102063E-1,-8.596830368E-1,1.235468486E0
2.511170000E0,1.547643840E-1,-8.558927774E-1,-8.365049362E-1,1.206749754E0
2.515723281E0,1.521730125E-1,-7.930052280E-1,-8.516302109E-1,1.173579113E0
2.520275781E0,1.241213083E-1,-7.580998540E-1,-8.524446487E-1,1.147511816E0
2.524829166E0,1.659750640E-1,-7.033013105E-1,-8.580770493E-1,1.121818469E0
2.529383229E0,2.106734663E-1,-6.859129667E-1,-8.709106445E-1,1.128426009E0
2.533936510E0,2.486601621E-1,-6.818746328E-1,-8.861560822E-1,1.145450782E0
2.538489010E0,3.110522926E-1,-6.387814879E-1,-9.085826874E-1,1.153394043E0
2.543042396E0,3.669235110E-1,-5.925858617E-1,-8.951816559E-1,1.134522394E0
2.547596406E0,4.064617753E-1,-5.411812067E-1,-8.555574417E-1,1.090901833E0
2.552149739E0,4.343641400E-1,-4.847976863E-1,-7.969112396E-1,1.028964784E0
2.556702239E0,4.242159128E-1,-4.283863902E-1,-7.622623444E-1,9.718631188E-1
2.561255573E0,3.926445842E-1,-3.505589366E-1,-7.396154404E-1,9.077953168E-1
2.565809635E0,4.065124989E-1,-2.777910829E-1,-7.767133713E-1,9.196216388E-1
2.570362916E0,3.629218340E-1,-2.292380333E-1,-7.707405090E-1,8.822149771E-1
2.574915469E0,3.692424595E-1,-1.952476054E-1,-7.767076492E-1,8.818936408E-1
2.579468802E0,3.606742024E-1,-1.877903640E-1,-7.683172226E-1,8.692884767E-1
2.584022864E0,3.371317685E-1,-2.136563808E-1,-7.766561508E-1,8.732134075E-1
2.588576146E0,3.033572435E-1,-2.344617397E-1,-7.802009583E-1,8.693166626E-1
2.593128646E0,3.001363575E-1,-2.287754864E-1,-7.765703201E-1,8.634127161E-1
2.597682031E0,3.396299183E-1,-1.966989934E-1,-7.371196747E-1,8.350954378E-1
2.602236041E0,3.499980569E-1,-1.598340124E-1,-6.834020615E-1,7.842728664E-1
2.606789375E0,3.454013169E-1,-1.540202796E-1,-6.250009537E-1,7.305138659E-1
2.611341875E0,3.664738834E-1,-1.505434215E-1,-6.073026657E-1,7.251089275E-1
2.615895260E0,3.751196265E-1,-1.349049062E-1,-6.589069366E-1,7.701119523E-1
2.620449271E0,3.716366291E-1,-1.237394065E-1,-7.032651901E-1,8.049889145E-1
2.625002604E0,3.848187327E-1,-9.559838474E-2,-7.427749634E-1,8.419852460E-1
2.629555104E0,3.718109429E-1,-6.006833911E-2,-7.678928375E-1,8.552841589E-1
2.634108437E0,3.781002760E-1,-2.676999569E-2,-7.571458817E-1,8.467268376E-1
2.638662500E0,4.034885764E-1,-2.441778779E-2,-7.201480865E-1,8.258404968E-1
2.643215833E0,3.835020959E-1,-2.212625742E-2,-6.927661896E-1,7.921416681E-1
2.647768333E0,3.923226893E-1,-8.400678635E-4,-6.702089310E-1,7.765937222E-1
2.652321666E0,3.320181370E-1,-1.360297203E-3,-6.524610519E-1,7.320814968E-1
2.656875729E0,2.910310030E-1,2.157399058E-2,-6.466760635E-1,7.094747444E-1
2.661429010E0,2.382173538E-1,3.670620918E-2,-6.384983063E-1,6.824770623E-1
2.665981562E0,2.068229914E-1,4.160729051E-2,-6.327047348E-1,6.669499215E-1
2.670534896E0,1.895913780E-1,3.868462145E-2,-6.125717163E-1,6.424060228E-1
2.675088958E0,1.650551111E-1,3.039523959E-2,-5.805139542E-1,6.042876064E-1
2.679642239E0,1.522820592E-1,-2.142712474E-3,-5.556688309E-1,5.761616669E-1
2.684194739E0,1.299703568E-1,-2.300126851E-2,-5.690784454E-1,5.841845848E-1
2.688748125E0,1.411296129E-1,-3.920008242E-2,-5.561866760E-1,5.751502697E-1
2.693302187E0,1.760905683E-1,-5.302587152E-2,-5.385398865E-1,5.690736689E-1
2.697855469E0,1.629249752E-1,-7.381834090E-2,-5.065937042E-1,5.372437772E-1
2.702407969E0,1.542086601E-1,-4.423691332E-2,-4.866476059E-1,5.124091214E-1
2.706961354E0,1.117121875E-1,-1.675657928E-2,-4.356899261E-1,4.500956649E-1
2.711515416E0,9.059967101E-2,6.235674024E-3,-3.919925690E-1,4.023746490E-1
2.716068698E0,9.833253920E-2,4.852390289E-2,-3.221006393E-1,3.402538454E-1
2.720621198E0,6.575290859E-2,7.885794342E-2,-2.642755508E-1,2.835199940E-1
2.725174583E0,7.442432642E-2,1.139820069E-1,-1.946096420E-1,2.374948232E-1
2.729728594E0,7.888903469E-2,1.635014117E-1,-1.561203003E-1,2.394362954E-1
2.734281927E0,6.004458666E-2,2.010077089E-1,-1.654758453E-1,2.671922656E-1
2.738834427E0,6.081919000E-2,2.574688196E-1,-1.819839478E-1,3.211032921E-1
2.743387812E0,8.090808243E-2,2.780224681E-1,-2.175741196E-1,3.621893263E-1
2.747941823E0,2.934369817E-2,3.151724935E-1,-2.268257141E-1,3.894157904E-1
2.752495156E0,2.060721442E-2,3.546192646E-1,-2.368593216E-1,4.269447486E-1
2.757047656E0,1.167842373E-2,3.696963191E-1,-2.325601578E-1,4.369164462E-1
2.761600989E0,1.906770095E-2,4.033173323E-1,-2.021865845E-1,4.515615824E-1
2.766155052E0,1.411309838E-2,4.244782925E-1,-1.957845688E-1,4.676671869E-1
2.770708385E0,-1.731618121E-2,4.354904294E-1,-1.823043823E-1,4.724263456E-1
2.775260885E0,-2.031233907E-2,4.601130486E-1,-1.499385834E-1,4.843533703E-1
2.779814219E0,-3.782240674E-2,4.935404062E-1,-1.320667267E-1,5.123029254E-1
2.784368281E0,-4.361733422E-2,5.025863647E-1,-8.585739136E-2,5.117294378E-1
2.788921614E0,-3.779513016E-2,5.063282251E-1,-5.900192261E-2,5.111535682E-1
2.793474114E0,-2.982703224E-2,5.167810917E-1,-1.574897766E-2,5.178806608E-1
2.798027448E0,1.829506084E-2,4.794735610E-1,-6.070137024E-3,4.798608669E-1
2.802581510E0,4.713135958E-2,4.472224712E-1,1.157760620E-3,4.497006162E-1
2.807134791E0,9.243752807E-2,4.106024802E-1,3.442382812E-2,4.222843749E-1
2.811687344E0,1.115221977E-1,3.746123612E-1,3.418350220E-2,3.923520531E-1
2.816240677E0,1.186192632E-1,3.464737535E-1,5.766201019E-2,3.707283356E-1
2.820794739E0,1.399831474E-1,3.189482987E-1,7.618904114E-2,3.565502332E-1
2.825348021E0,1.470154971E-1,2.967764735E-1,1.064138412E-1,3.478702879E-1
2.829900573E0,1.326043904E-1,2.725777626E-1,1.672286987E-1,3.461906970E-1
2.834453906E0,1.254015863E-1,2.535423934E-1,2.322769165E-1,3.660080178E-1
2.839007969E0,1.276111752E-1,2.323453426E-1,2.825441360E-1,3.874276179E-1
2.843561250E0,1.059893072E-1,1.994033754E-1,3.608694077E-1,4.257019717E-1
2.848113802E0,8.931164443E-2,1.785989702E-1,3.744745255E-1,4.243881857E-1
2.852667135E0,8.730039001E-2,1.483132541E-1,4.045801163E-1,4.396626547E-1
2.857221198E0,1.021517962E-1,1.560300291E-1,3.964748383E-1,4.381468439E-1
2.861774479E0,1.028246880E-1,1.184367239E-1,4.382724762E-1,4.654921454E-1
2.866327031E0,8.441275358E-2,8.115991950E-2,4.702320099E-1,4.845932197E-1
2.870880364E0,6.335488707E-2,1.103049517E-2,4.758214951E-1,4.801474864E-1
2.875434427E0,6.334084272E-2,-4.632189870E-2,4.837293625E-1,4.900529326E-1
2.879987708E0,5.576978996E-2,-1.075616032E-1,4.773225784E-1,4.924597566E-1
2.884540260E0,6.955069304E-2,-1.750297099E-1,4.709587097E-1,5.072226380E-1
2.889093594E0,7.376371324E-2,-2.035898119E-1,5.358209610E-1,5.779221394E-1
2.893647656E0,6.621685624E-2,-2.175120711E-1,5.953922272E-1,6.373288612E-1
2.898200937E0,7.785125822E-2,-2.360640317E-1,6.805677414E-1,7.245408864E-1
2.902753489E0,6.121172756E-2,-2.428147495E-1,7.341918945E-1,7.757213521E-1
2.907306823E0,6.647445261E-2,-2.546885610E-1,7.897548676E-1,8.324649343E-1
2.911860885E0,6.514993310E-2,-2.694872320E-1,8.069057465E-1,8.532085124E-1
2.916414166E0,7.407091558E-2,-2.752644718E-1,7.978286743E-1,8.472234791E-1
2.920966719E0,4.812338203E-2,-2.676751316E-1,8.149538040E-1,8.591365076E-1
2.925520052E0,-7.856452465E-2,-1.802212298E-1,7.560253143E-1,7.811698612E-1
2.930074114E0,-2.296018302E-1,-6.780603528E-2,6.714992523E-1,7.128996456E-1
2.934627396E0,-3.626188934E-1,1.293520331E-1,5.758094788E-1,6.926622309E-1
2.939179948E0,-4.715163410E-1,2.734721601E-1,4.453048706E-1,7.038544664E-1
2.943733281E0,-4.881138802E-1,3.537356555E-1,3.466949463E-1,6.954002156E-1
2.948287344E0,-3.709051311E-1,3.379440606E-1,2.796945572E-1,5.744613561E-1
2.952840625E0,-2.707185745E-1,2.555246651E-1,2.464094162E-1,4.464291674E-1
2.957393177E0,-1.423933059E-1,1.593883336E-1,2.394323349E-1,3.209491197E-1
2.961946510E0,-2.567606978E-3,6.867599487E-2,2.751579285E-1,2.836104203E-1
2.966500573E0,1.512988508E-1,-2.395308018E-2,3.698539734E-1,4.003211885E-1
2.971053854E0,3.026312590E-1,-8.566300571E-2,5.183048248E-1,6.062703365E-1
2.975606406E0,4.351022542E-1,-1.572816819E-1,6.773662567E-1,8.202905246E-1
2.980159739E0,5.230268240E-1,-2.035229653E-1,8.018856049E-1,9.787743250E-1
2.984713802E0,5.931967497E-1,-2.770274580E-1,9.467382431E-1,1.151060336E0
2.989267135E0,6.671095490E-1,-3.542893231E-1,1.080923080E0,1.318692830E0
2.993819635E0,7.211082578E-1,-4.499616027E-1,1.192681313E0,1.464565218E0
2.998372969E0,7.674336433E-1,-5.450722575E-1,1.282199860E0,1.590627123E0
3.002927031E0,8.324114680E-1,-6.686570644E-1,1.378146172E0,1.743358251E0
3.007480364E0,8.639032841E-1,-7.568067312E-1,1.418774605E0,1.825378506E0
3.012032864E0,9.026932716E-1,-8.861917853E-1,1.480475426E0,1.947305448E0
3.016586198E0,9.062853456E-1,-9.477549791E-1,1.484756470E0,1.980932710E0
3.021140260E0,9.264992476E-1,-1.027707696E0,1.480153084E0,2.026187828E0
3.025693594E0,9.308662415E-1,-1.079092503E0,1.458854675E0,2.039414022E0
3.030246094E0,9.601528645E-1,-1.135505676E0,1.368314743E0,2.020780023E0
3.034799479E0,9.618839025E-1,-1.192208886E0,1.251638412E0,1.978176278E0
3.039353489E0,9.648416638E-1,-1.198964596E0,1.084969521E0,1.882974880E0
3.043906823E0,9.259759784E-1,-1.205676079E0,9.089975357E-1,1.771260240E0
3.048459323E0,8.476369381E-1,-1.166660428E0,7.332935333E-1,1.617808499E0
3.053012708E0,7.345016003E-1,-1.076755524E0,4.933519363E-1,1.393661075E0
3.057566719E0,6.270198822E-1,-9.786456227E-1,2.752819061E-1,1.194437657E0
3.062120052E0,5.464678407E-1,-8.695591092E-1,9.577846527E-2,1.031471599E0
3.066672552E0,5.116431713E-1,-7.563452721E-1,-5.954647064E-2,9.150861640E-1
3.071225937E0,4.720284939E-1,-6.839669943E-1,-1.955108643E-1,8.537249243E-1
3.075780000E0,4.515830576E-1,-6.351946592E-1,-3.264865875E-1,8.449810678E-1
3.080333281E0,4.575572610E-1,-6.098223925E-1,-4.381504059E-1,8.793280250E-1
3.084885781E0,4.397377074E-1,-5.718106031E-1,-5.018672943E-1,8.787533205E-1
3.089439166E0,4.531126022E-1,-5.259619951E-1,-5.392112732E-1,8.790311984E-1
3.093993229E0,5.021864176E-1,-5.152368546E-1,-5.311088562E-1,8.942800632E-1
3.098546510E0,5.126674771E-1,-5.015214682E-1,-4.871788025E-1,8.670034087E-1
3.103099062E0,5.655124187E-1,-4.944937825E-1,-4.767580032E-1,8.897339998E-1
3.107652396E0,5.985376835E-1,-5.109323263E-1,-4.543972015E-1,9.087221893E-1
3.112206458E0,6.096073389E-1,-5.293585062E-1,-4.440145493E-1,9.214067808E-1
3.116759739E0,6.325380802E-1,-5.594369173E-1,-4.288702011E-1,9.471028121E-1
3.121312291E0,6.506412029E-1,-5.729817152E-1,-3.563957214E-1,9.373686207E-1
3.125865625E0,6.544214487E-1,-5.705772638E-1,-3.055086136E-1,9.204136893E-1
3.130419687E0,6.247291565E-1,-5.906399488E-1,-2.236070633E-1,8.883367531E-1
3.134973021E0,6.188982725E-1,-5.925666094E-1,-1.871900558E-1,8.770463929E-1
3.139525521E0,6.318929195E-1,-6.049975753E-1,-2.344112396E-1,9.056817085E-1
3.144078906E0,6.707969308E-1,-6.298620701E-1,-2.767562866E-1,9.608791765E-1
3.148632916E0,7.379592657E-1,-7.025328875E-1,-3.357429504E-1,1.072781275E0
3.153186250E0,7.976663113E-1,-8.033209443E-1,-4.185361862E-1,1.206966703E0
3.157738750E0,8.812096715E-1,-8.886738420E-1,-4.462718964E-1,1.328694957E0
3.162292135E0,9.816037416E-1,-9.511138201E-1,-4.931201935E-1,1.453041957E0
3.166846146E0,1.079702258E0,-1.009619832E0,-4.754314423E-1,1.552779517E0
3.171399479E0,1.156440616E0,-1.035409689E0,-4.745492935E-1,1.623152844E0
3.175951979E0,1.207230806E0,-1.021194339E0,-4.808998108E-1,1.652727662E0
3.180505364E0,1.215547204E0,-9.934828877E-1,-4.825248718E-1,1.642374350E0
3.185059427E0,1.217738986E0,-9.502969980E-1,-4.435911179E-1,1.607086091E0
3.189612708E0,1.173589826E0,-8.989376426E-1,-4.286699295E-1,1.539207547E0
3.194165260E0,1.119287968E0,-8.232473135E-1,-4.042654037E-1,1.447056395E0
3.198718594E0,1.078915834E0,-7.570427060E-1,-3.823289871E-1,1.372351446E0
3.203272656E0,1.033284664E0,-7.150307894E-1,-3.962888718E-1,1.317570149E0
3.207825989E0,9.919558764E-1,-6.661608815E-1,-4.365329742E-1,1.272127281E0
3.212378489E0,8.902947307E-1,-6.417741776E-1,-5.245122910E-1,1.216393006E0
3.216931823E0,8.091753721E-1,-5.941465497E-1,-6.123533249E-1,1.175904545E0
3.221485885E0,7.268350720E-1,-5.663682222E-1,-7.311134338E-1,1.176260617E0
3.226039219E0,6.355979443E-1,-5.225086212E-1,-8.687877655E-1,1.196575191E0
3.230591719E0,5.806524754E-1,-4.910387695E-1,-9.871234894E-1,1.246069482E0
3.235145104E0,5.090488791E-1,-4.528264403E-1,-1.141100883E0,1.329019854E0
3.239699166E0,4.278671145E-1,-4.076589942E-1,-1.263770103E0,1.395124008E0
3.244252448E0,3.703979552E-1,-3.768838048E-1,-1.383852959E0,1.481311938E0
3.248805000E0,3.147090375E-1,-3.388668597E-1,-1.484632492E0,1.554993943E0
3.253358333E0,2.581864595E-1,-3.030140400E-1,-1.590035439E0,1.639112703E0
3.257912396E0,2.007104903E-1,-2.646036744E-1,-1.654659271E0,1.687660247E0
3.262465677E0,1.232156381E-1,-2.020273656E-1,-1.735914230E0,1.751968997E0
3.267018229E0,9.013484418E-2,-1.846750528E-1,-1.738202095E0,1.750307313E0
3.271571562E0,7.984921336E-2,-1.455849707E-1,-1.687920570E0,1.696068021E0
3.276125625E0,9.482723475E-2,-1.423076242E-1,-1.625759125E0,1.634728233E0
3.280678958E0,6.112708896E-2,-9.372261167E-2,-1.549343109E0,1.553378421E0
3.285231458E0,5.800537020E-2,-7.897236943E-2,-1.477800369E0,1.481045303E0
3.289784844E0,9.042526782E-2,-3.849887848E-2,-1.394390106E0,1.397849298E0
3.294338854E0,1.201106980E-1,-1.307246089E-2,-1.311072350E0,1.316627576E0
3.298892187E0,1.402377933E-1,2.116724849E-2,-1.244569778E0,1.252624694E0
3.303444739E0,1.748261452E-1,6.159541011E-2,-1.180512428E0,1.194976054E0
3.307998073E0,2.074139565E-1,7.980704308E-2,-1.183418274E0,1.204104864E0
3.312552135E0,2.212784588E-1,9.739473462E-2,-1.179122925E0,1.203653091E0
3.317105416E0,2.212206423E-1,1.336448491E-1,-1.205872536E0,1.233259134E0
3.321657969E0,1.975836754E-1,1.958110631E-1,-1.227784157E0,1.258902386E0
3.326211302E0,2.002388537E-1,2.074443102E-1,-1.232919693E0,1.266183126E0
3.330765364E0,2.049190998E-1,2.214603722E-1,-1.261937141E0,1.297506024E0
3.335318698E0,1.968813390E-1,2.571927309E-1,-1.288534164E0,1.328619831E0
3.339871198E0,2.068709731E-1,2.524802685E-1,-1.317495346E0,1.357326738E0
3.344424583E0,2.109726667E-1,2.696123123E-1,-1.375111580E0,1.417085785E0
3.348978646E0,2.643208206E-1,2.919973135E-1,-1.406390190E0,1.460500357E0
3.353531927E0,2.879369557E-1,3.100140095E-1,-1.406589508E0,1.468846629E0
3.358084479E0,3.273250461E-1,3.381161094E-1,-1.363810539E0,1.442720824E0
3.362637812E0,3.824676275E-1,3.906248212E-1,-1.306785583E0,1.416530197E0
3.367191875E0,4.223359823E-1,4.219376743E-1,-1.242695808E0,1.378655851E0
3.371745208E0,4.613507986E-1,4.630940259E-1,-1.183496475E0,1.352022390E0
3.376297708E0,4.947365224E-1,4.711790383E-1,-1.105289459E0,1.299399362E0
3.380851094E0,5.058383942E-1,4.939179122E-1,-1.070223808E0,1.282655989E0
3.385405104E0,5.642139316E-1,5.193996429E-1,-1.020891190E0,1.276844615E0
3.389958437E0,6.295155287E-1,5.188912153E-1,-9.620838165E-1,1.261405234E0
3.394510937E0,6.685627699E-1,5.401648283E-1,-8.866415024E-1,1.234863301E0
3.399064323E0,7.007312179E-1,5.377885103E-1,-8.328142166E-1,1.214009984E0
3.403618385E0,7.501456738E-1,5.523618460E-1,-7.647304535E-1,1.205253005E0
3.408171666E0,7.692135572E-1,5.694699287E-1,-7.134685516E-1,1.193743218E0
3.412724219E0,7.605235577E-1,5.602676868E-1,-6.574907303E-1,1.150908347E0
3.417277604E0,7.648414373E-1,5.511312485E-1,-6.326475143E-1,1.135328567E0
3.421831614E0,7.414070368E-1,5.300573111E-1,-5.815467834E-1,1.081129876E0
3.426384948E0,7.210335135E-1,5.234580040E-1,-6.069841385E-1,1.078112867E0
3.430937448E0,6.484715343E-1,5.050277710E-1,-6.443376541E-1,1.044384696E0
3.435490833E0,5.905258060E-1,4.987882674E-1,-6.840419769E-1,1.032193727E0
3.440044896E0,5.302765965E-1,5.023880005E-1,-7.189264297E-1,1.024910817E0
3.444598177E0,4.652166367E-1,5.158122778E-1,-7.012090683E-1,9.870070833E-1
3.449150729E0,4.333611727E-1,5.388805866E-1,-7.169771194E-1,9.961176549E-1
3.453704062E0,3.603603840E-1,5.810814500E-1,-7.064476013E-1,9.831497705E-1
3.458258125E0,3.439716101E-1,6.184381247E-1,-6.839904785E-1,9.841875620E-1
3.462811458E0,2.834741473E-1,6.676286459E-1,-6.520118713E-1,9.752974323E-1
3.467363958E0,2.554036677E-1,7.263040543E-1,-6.607093811E-1,1.014537086E0
3.471917344E0,2.528305352E-1,7.826718092E-1,-6.383457184E-1,1.041145377E0
3.476471406E0,2.425567508E-1,8.748612404E-1,-6.375246048E-1,1.109348272E0
3.481024687E0,2.845734358E-1,9.527007937E-1,-5.769701004E-1,1.149571807E0
3.485577239E0,2.951263487E-1,9.996494651E-1,-4.973955154E-1,1.154902989E0
3.490130573E0,3.174474537E-1,1.051872730E0,-4.322929382E-1,1.180714322E0
3.494684635E0,3.659814894E-1,1.083189487E0,-3.864259720E-1,1.206883154E0
3.499237969E0,3.929601014E-1,1.112799883E0,-3.119783401E-1,1.220684933E0
3.503790469E0,4.274259806E-1,1.116975665E0,-2.782945633E-1,1.227915090E0
3.508343854E0,4.862706065E-1,1.117370129E0,-1.801786423E-1,1.231843923E0
3.512897916E0,5.121039748E-1,1.063748360E0,-1.180791855E-1,1.186487989E0
3.517451250E0,5.310345292E-1,1.011031151E0,-2.264213562E-2,1.142232168E0
3.522003750E0,5.284498334E-1,9.471012950E-1,6.308174133E-2,1.086388234E0
3.526557083E0,4.993148148E-1,8.768100739E-1,1.677827835E-1,1.022869616E0
3.531111146E0,5.032396317E-1,8.189505935E-1,2.842807770E-1,1.002370072E0
3.535664479E0,5.138897896E-1,7.445493937E-1,3.791198730E-1,9.809018267E-1
3.540217031E0,5.289801955E-1,6.606862545E-1,4.857912064E-1,9.758685723E-1
3.544770364E0,5.606135726E-1,5.600950122E-1,5.684394836E-1,9.752525042E-1
3.549324427E0,5.802004337E-1,4.760313034E-1,6.677312851E-1,1.004541395E0
3.553877760E0,5.736360550E-1,3.773487508E-1,7.573614120E-1,1.022275262E0
3.558430260E0,5.650133491E-1,3.238092363E-1,8.349523544E-1,1.058885235E0
3.562983646E0,4.854132533E-1,2.675066888E-1,8.837900162E-1,1.043202113E0
3.567537708E0,3.542053103E-1,2.755236030E-1,9.134683609E-1,1.017742160E0
3.572090989E0,1.954051256E-1,3.360489607E-1,9.120483398E-1,9.914354449E-1
3.576643541E0,2.544348873E-2,4.303418398E-1,8.580446243E-1,9.602510336E-1
3.581196875E0,-9.892156720E-2,5.136224031E-1,8.231906891E-1,9.753134676E-1
3.585750937E0,-1.948605478E-1,5.550610423E-1,8.098449707E-1,1.000955679E0
3.590304271E0,-2.053879350E-1,5.000222921E-1,7.964658737E-1,9.625821443E-1
3.594856771E0,-1.545625031E-1,4.633380175E-1,8.404092789E-1,9.720388067E-1
3.599410156E0,-4.512937739E-2,3.326152861E-1,8.842601776E-1,9.458253808E-1
3.603964219E0,9.410545230E-2,2.059555352E-1,9.782085419E-1,1.004074434E0
3.608517500E0,2.415457964E-1,5.700677633E-2,1.107861519E0,1.135319906E0
3.613070052E0,3.947990239E-1,-8.596907556E-2,1.244521141E0,1.308468502E0
3.617623437E0,5.209068656E-1,-2.089679688E-1,1.392974854E0,1.501795764E0
3.622177448E0,6.061282754E-1,-2.718345523E-1,1.526935577E0,1.665177999E0
3.626730781E0,6.340149045E-1,-3.063300848E-1,1.670337677E0,1.812688880E0
3.631283333E0,6.044751406E-1,-3.127702773E-1,1.811224937E0,1.934877571E0
3.635836666E0,5.388081670E-1,-3.322022259E-1,1.904201508E0,2.006652920E0
3.640390729E0,5.062510967E-1,-3.408807218E-1,1.911092758E0,2.006181789E0
3.644944062E0,5.115953684E-1,-3.987373114E-1,1.908477783E0,2.015690629E0
3.649496562E0,5.574023724E-1,-4.724762440E-1,1.862910271E0,2.001091173E0
3.654049948E0,5.958745480E-1,-5.575730205E-1,1.800727844E0,1.977011613E0
3.658604010E0,6.294626594E-1,-6.064405441E-1,1.738679886E0,1.946021870E0
3.663157291E0,6.699565649E-1,-6.767620444E-1,1.700666428E0,1.949131848E0
3.667709844E0,7.027263045E-1,-7.657282352E-1,1.638852119E0,1.940618525E0
3.672263229E0,7.207194567E-1,-8.658104539E-1,1.550870895E0,1.916837190E0
3.676817291E0,7.217862606E-1,-9.861066341E-1,1.427183151E0,1.878891547E0
3.681370573E0,7.307400703E-1,-1.030829072E0,1.282155991E0,1.800142664E0
3.685923125E0,7.173950076E-1,-1.057147741E0,1.134914398E0,1.708873206E0
3.690476458E0,7.157907486E-1,-1.043575525E0,1.006958008E0,1.617210779E0
3.695030521E0,6.761730313E-1,-1.021285653E0,8.958587646E-1,1.517497044E0
3.699583854E0,5.987008214E-1,-9.926774502E-1,8.087644577E-1,1.413488996E0
3.704136354E0,5.288814306E-1,-9.196322560E-1,6.381015778E-1,1.237987350E0
3.708689739E0,3.878418207E-1,-8.739612103E-1,4.676218033E-1,1.064377577E0
3.713243802E0,2.902160287E-1,-8.078370690E-1,2.710466385E-1,9.001624040E-1
3.717797135E0,1.806456745E-1,-7.402939796E-1,6.037044525E-2,7.644034450E-1
3.722349635E0,8.732153475E-2,-6.877323389E-1,-1.763334274E-1,7.153281052E-1
3.726903021E0,-4.785639048E-2,-6.641980410E-1,-4.031677246E-1,7.784558343E-1
3.731457083E0,-1.084047034E-1,-6.360876560E-1,-5.986270905E-1,8.801780952E-1
3.736010364E0,-1.453880072E-1,-6.055172682E-1,-7.579698563E-1,9.809725469E-1
3.740562916E0,-1.549471915E-1,-5.844962001E-1,-8.764514923E-1,1.064805925E0
3.745116302E0,-1.662348807E-1,-5.753492117E-1,-9.350070953E-1,1.110359860E0
3.749670364E0,-1.964201182E-1,-5.661678314E-1,-9.910697937E-1,1.158165019E0
3.754223646E0,-1.929581612E-1,-5.523353219E-1,-9.825067520E-1,1.143515053E0
3.758776198E0,-1.822270155E-1,-5.197968483E-1,-9.571943283E-1,1.104362454E0
3.763329531E0,-1.739020497E-1,-4.974777102E-1,-9.223165512E-1,1.062258827E0
3.767883594E0,-1.154510379E-1,-4.617452919E-1,-8.515892029E-1,9.755725638E-1
3.772436927E0,-1.120256186E-1,-4.533511400E-1,-7.546091080E-1,8.874186730E-1
3.776989479E0,-1.060818732E-1,-4.318008423E-1,-6.983175278E-1,8.278603148E-1
3.781542812E0,-1.165719256E-1,-4.234036803E-1,-6.396369934E-1,7.758834794E-1
3.786096875E0,-1.073968187E-1,-4.305914044E-1,-6.287479401E-1,7.695888554E-1
3.790650208E0,-1.120885015E-1,-4.628448486E-1,-5.867156982E-1,7.556616284E-1
3.795202708E0,-1.235100329E-1,-5.127424002E-1,-5.446424484E-1,7.581522893E-1
3.799756094E0,-1.033119559E-1,-5.871044397E-1,-5.312080383E-1,7.984653802E-1
3.804310156E0,-8.243154734E-2,-6.474984884E-1,-5.320320129E-1,8.420850998E-1
3.808863489E0,-6.286577880E-2,-7.198917866E-1,-5.566654205E-1,9.121801801E-1
3.813415989E0,-2.049365640E-2,-8.327250481E-1,-5.548973083E-1,1.000880621E0
3.817969375E0,1.379993558E-2,-9.401028752E-1,-5.387268066E-1,1.083609905E0
3.822523437E0,5.219261348E-2,-1.025190353E0,-5.081796646E-1,1.145419531E0
3.827076719E0,1.233604550E-1,-1.133138657E0,-4.322185516E-1,1.219029898E0
3.831629271E0,1.630131900E-1,-1.246913791E0,-3.778352737E-1,1.313060088E0
3.836182656E0,2.097510695E-1,-1.330555320E0,-2.924461365E-1,1.378367771E0
3.840736719E0,2.449978590E-1,-1.415221810E0,-2.262926102E-1,1.453989363E0
3.845290000E0,2.789395750E-1,-1.446105838E0,-1.602554321E-1,1.481455765E0
3.849842552E0,3.120766282E-1,-1.445061564E0,-8.239650726E-2,1.480670095E0
3.854395937E0,3.543480337E-1,-1.429025412E0,-3.098487854E-2,1.472629016E0
3.858950000E0,3.557230234E-1,-1.443421245E0,-1.556873322E-2,1.486689660E0
3.863503281E0,3.547595739E-1,-1.445181012E0,-7.443428040E-3,1.488105479E0
3.868055833E0,3.253341615E-1,-1.463105917E0,-7.831096649E-2,1.500884355E0
3.872609219E0,3.106646836E-1,-1.408865690E0,-1.348772049E-1,1.449002049E0
3.877163281E0,2.534232736E-1,-1.363906860E0,-2.392978668E-1,1.407738878E0
3.881716562E0,1.893350780E-1,-1.313978553E0,-3.484897614E-1,1.372527786E0
3.886269114E0,1.062322855E-1,-1.261362076E0,-4.791727066E-1,1.353486634E0
3.890822448E0,5.159461498E-2,-1.205890656E0,-6.193656921E-1,1.356631172E0
3.895376562E0,-1.801994443E-2,-1.157126307E0,-7.786016464E-1,1.394806988E0
3.899929844E0,-6.453415751E-2,-1.117275715E0,-9.664154053E-1,1.478657640E0
3.904482396E0,-1.120370328E-1,-1.050485611E0,-1.115843773E0,1.536613042E0
3.909035781E0,-1.726447046E-1,-9.995847940E-1,-1.265181541E0,1.621622733E0
3.913589791E0,-2.108272314E-1,-9.238719940E-1,-1.416803360E0,1.704499734E0
3.918143125E0,-2.627933025E-1,-8.352195621E-1,-1.530070305E0,1.762886036E0
3.922695677E0,-2.784474492E-1,-7.763321400E-1,-1.664788246E0,1.857887100E0
3.927249010E0,-3.203064203E-1,-7.326646447E-1,-1.792251587E0,1.962539028E0
3.931803073E0,-3.647094965E-1,-6.873085499E-1,-1.905297279E0,2.058048537E0
3.936356406E0,-3.929253817E-1,-6.283755302E-1,-1.929839134E0,2.067250649E0
3.940908958E0,-4.149169326E-1,-5.678913593E-1,-1.966343880E0,2.088340229E0
3.945462344E0,-4.165637195E-1,-4.988571703E-1,-1.933526993E0,2.039830983E0
3.950016354E0,-4.194972515E-1,-4.454668462E-1,-1.864912033E0,1.962731654E0
3.954569687E0,-3.880843818E-1,-3.843077719E-1,-1.798747063E0,1.879838543E0
3.959122239E0,-3.700465560E-1,-3.228397071E-1,-1.699170113E0,1.768711113E0
3.963675625E0,-3.534131646E-1,-2.448857725E-1,-1.599657059E0,1.656433703E0
3.968229687E0,-3.333420753E-1,-1.888174713E-1,-1.485861778E0,1.534455669E0
3.972782969E0,-3.192809522E-1,-1.453309655E-1,-1.427101135E0,1.469584658E0
3.977335521E0,-3.183336258E-1,-1.024064124E-1,-1.358788490E0,1.399331816E0
3.981888906E0,-2.753472924E-1,-5.998739600E-2,-1.295279503E0,1.325580480E0
3.986442969E0,-2.190004289E-1,-5.152899027E-2,-1.270030975E0,1.289804289E0
3.990996250E0,-2.040510327E-1,-4.103457928E-2,-1.254327774E0,1.271478991E0
3.995548802E0,-1.539779305E-1,-4.039674997E-2,-1.209921837E0,1.220349111E0
4.000102187E0,-1.142844409E-1,-3.537553549E-2,-1.122507095E0,1.128864270E0
4.004656250E0,-6.828945875E-2,-3.069740534E-2,-1.078166008E0,1.080762565E0
4.009209531E0,-8.513560891E-2,4.701972008E-3,-1.017106056E0,1.020673753E0
4.013762083E0,-1.119537205E-1,7.556954026E-2,-9.728136063E-1,9.821459685E-1
4.018315469E0,-9.349370003E-2,1.553555727E-1,-9.500465393E-1,9.671943201E-1
4.022869531E0,-1.037308872E-1,2.177051306E-1,-9.153251648E-1,9.465599707E-1
4.027422864E0,-1.234554201E-1,3.056574166E-1,-8.758382797E-1,9.358207036E-1
4.031975364E0,-1.408745646E-1,3.452639878E-1,-8.315896988E-1,9.113694593E-1
4.036528750E0,-1.632700711E-1,4.157237411E-1,-8.017158508E-1,9.177317966E-1
4.041082812E0,-1.809059978E-1,4.405745566E-1,-7.909812927E-1,9.233007773E-1
4.045636146E0,-1.578808725E-1,4.609391689E-1,-8.065538406E-1,9.422952750E-1
4.050188646E0,-1.559919119E-1,4.984946847E-1,-8.532009125E-1,1.000391036E0
4.054742031E0,-1.343654394E-1,4.841897786E-1,-8.400897980E-1,9.788997301E-1
4.059296094E0,-1.122039258E-1,4.898433983E-1,-8.294305801E-1,9.697893396E-1
4.063849427E0,-1.086780727E-1,4.820786417E-1,-7.710351944E-1,9.158089382E-1
4.068401927E0,-1.097063124E-1,4.942079484E-1,-6.936244965E-1,8.587152691E-1
4.072955312E0,-9.844607115E-2,5.023108721E-1,-6.020021439E-1,7.901989764E-1
4.077509375E0,-1.344907284E-1,5.371809602E-1,-5.272512436E-1,7.646208301E-1
4.082062708E0,-1.338042915E-1,5.577677488E-1,-4.454545975E-1,7.262494396E-1
4.086615260E0,-1.321116388E-1,5.708664656E-1,-3.709564209E-1,6.935060727E-1
4.091168594E0,-1.032365263E-1,5.692623258E-1,-2.559461594E-1,6.326340272E-1
4.095722656E0,-8.311426640E-2,5.814276934E-1,-1.626024246E-1,6.094306297E-1
4.100275989E0,-1.005796194E-1,5.856709480E-1,-8.610725403E-2,6.004508126E-1
4.104828541E0,-1.481989622E-1,5.988465548E-1,-5.991077423E-2,6.198140281E-1
4.109381927E0,-1.635781825E-1,6.089417338E-1,-6.484317780E-2,6.338552632E-1
4.113935989E0,-1.753281057E-1,6.233553886E-1,-7.219791412E-2,6.515553883E-1
4.118489271E0,-2.002979666E-1,6.253039837E-1,-7.479763031E-2,6.608472085E-1
4.123041823E0,-2.101833075E-1,6.387620568E-1,-7.024002075E-2,6.761121568E-1
4.127595208E0,-2.245113552E-1,6.064232588E-1,-5.373859406E-2,6.488777650E-1
4.132149271E0,-2.028703243E-1,5.833657980E-1,-4.920101166E-2,6.195908023E-1
4.136702604E0,-1.741487086E-1,5.602911711E-1,-8.767795563E-2,5.932464859E-1
4.141255104E0,-1.911540776E-1,5.467606783E-1,-1.117496490E-1,5.898941471E-1
4.145808489E0,-1.821850538E-1,5.403691530E-1,-1.238241196E-1,5.835431672E-1
4.150362552E0,-1.927363873E-1,5.484427214E-1,-1.263093948E-1,5.948872135E-1
4.154915885E0,-2.085561752E-1,5.946390629E-1,-9.769821167E-2,6.376803540E-1
4.159468437E0,-2.464769781E-1,6.046600342E-1,-5.474758148E-2,6.552571673E-1
4.164021771E0,-2.636177540E-1,6.502445936E-1,1.208591461E-2,7.017538180E-1
4.168575833E0,-2.461606115E-1,6.619279385E-1,9.562778473E-2,7.126628344E-1
4.173129166E0,-2.158206403E-1,6.421371102E-1,1.480674744E-1,6.934281463E-1
4.177681719E0,-2.420805395E-1,6.339769363E-1,1.837863922E-1,7.030698268E-1
4.182235104E0,-2.435031682E-1,6.352602839E-1,2.099657059E-1,7.119936930E-1
4.186789166E0,-2.080551386E-1,6.196223497E-1,2.505149841E-1,6.999832528E-1
4.191342500E0,-1.641799212E-1,6.112528443E-1,2.958402634E-1,6.986462250E-1
4.195895000E0,-1.355611980E-1,5.956850648E-1,3.793878555E-1,7.191332837E-1
4.200448385E0,-1.077333987E-1,6.062743068E-1,5.058927536E-1,7.969331831E-1
4.205002448E0,-9.031030536E-2,5.736809373E-1,5.844879150E-1,8.239489619E-1
4.209555781E0,-9.011539817E-2,5.649849176E-1,6.247797012E-1,8.471590271E-1
4.214108333E0,-1.092393100E-1,5.633682013E-1,6.674318314E-1,8.802171360E-1
4.218661666E0,-9.008300304E-2,5.235216022E-1,6.956996918E-1,8.753215846E-1
4.223215729E0,-9.010818601E-2,4.907928705E-1,7.382860184E-1,8.911023352E-1
4.227769062E0,-9.728476405E-2,4.224330783E-1,7.640943527E-1,8.784954245E-1
4.232321614E0,-1.616862714E-1,3.472326100E-1,7.707490921E-1,8.606782783E-1
4.236875000E0,-2.281720042E-1,2.699881792E-1,7.749977112E-1,8.518083897E-1
4.241429062E0,-2.799038291E-1,1.931557655E-1,7.792253494E-1,8.502043569E-1
4.245982396E0,-3.239639401E-1,7.390096784E-2,8.120994568E-1,8.774505771E-1
4.250534896E0,-3.171856105E-1,-2.562747896E-2,8.448972702E-1,9.028371262E-1
4.255088281E0,-3.191624582E-1,-1.198951080E-1,8.537130356E-1,9.192744197E-1
4.259642344E0,-3.415081501E-1,-1.922121048E-1,8.385553360E-1,9.256070232E-1
4.264195677E0,-3.838661313E-1,-2.164736539E-1,8.448419571E-1,9.528756383E-1
4.268748229E0,-4.961838722E-1,-1.975513101E-1,8.127927780E-1,9.725518265E-1
4.273301614E0,-6.544802189E-1,-7.812444866E-2,7.305011749E-1,9.839104395E-1
4.277855677E0,-8.231829405E-1,1.085655540E-1,6.386709213E-1,1.047529083E0
4.282409010E0,-1.012501240E0,3.295317292E-1,5.038824081E-1,1.177984466E0
4.286961510E0,-1.094072580E0,4.561125636E-1,3.811931610E-1,1.245127185E0
4.291514896E0,-1.104586959E0,5.030164123E-1,3.279771805E-1,1.257261664E0
4.296068958E0,-1.039952397E0,4.801548719E-1,3.059473038E-1,1.185602565E0
4.300622291E0,-9.557172060E-1,4.165982008E-1,3.055343628E-1,1.086416442E0
4.305174844E0,-8.734620810E-1,3.388333023E-1,3.291110992E-1,9.930045968E-1
4.309728229E0,-7.762337923E-1,2.802286744E-1,3.838195801E-1,9.101562945E-1
4.314282291E0,-6.350379586E-1,2.288030684E-1,4.863481522E-1,8.319606830E-1
4.318835625E0,-4.496491253E-1,1.960449815E-1,6.199111938E-1,7.905111378E-1
4.323388125E0,-2.604705691E-1,1.434524357E-1,8.179302216E-1,8.703064782E-1
4.327941510E0,-1.104176939E-1,6.620785594E-2,9.895143509E-1,9.978547980E-1
4.332495573E0,1.506042480E-2,-6.201963872E-2,1.172943115E0,1.174678170E0
4.337048906E0,1.163237691E-1,-1.718882322E-1,1.303667068E0,1.320085076E0
4.341601458E0,1.962267756E-1,-2.663297057E-1,1.474940300E0,1.511583722E0
4.346154844E0,3.126356602E-1,-4.031654000E-1,1.667565346E0,1.743862832E0
4.350708906E0,4.085810781E-1,-5.424978733E-1,1.852800369E0,1.973350361E0
4.355262239E0,4.580711126E-1,-6.589266062E-1,2.025839806E0,2.178999847E0
4.359814739E0,4.803923965E-1,-7.582256794E-1,2.162760735E0,2.341627005E0
4.364368125E0,4.350103140E-1,-8.315348625E-1,2.232503891E0,2.421726208E0
4.368922187E0,3.650400043E-1,-8.940184116E-1,2.242277145E0,2.441378693E0
4.373475521E0,2.679733634E-1,-9.152563810E-1,2.204079628E0,2.401555948E0
4.378028073E0,1.556425691E-1,-8.976594806E-1,2.077328682E0,2.268327932E0
4.382581458E0,6.370842457E-2,-9.225569963E-1,1.876476288E0,2.091968794E0
4.387135521E0,-3.196400404E-2,-9.370863438E-1,1.630300522E0,1.880699951E0
4.391688854E0,-1.052431464E-1,-9.238059521E-1,1.324546814E0,1.618307084E0
4.396241406E0,-1.873889863E-1,-8.606294394E-1,9.927759171E-1,1.327178091E0
4.400794739E0,-2.689922452E-1,-7.567260265E-1,6.565513611E-1,1.037328683E0
4.405348854E0,-3.453310728E-1,-6.114836335E-1,3.182954788E-1,7.710238620E-1
4.409902187E0,-4.190339446E-1,-4.650400281E-1,4.495620728E-2,6.275928099E-1
4.414454687E0,-4.736571312E-1,-3.312964439E-1,-1.802425385E-1,6.054715389E-1
4.419008073E0,-4.976180196E-1,-2.145978510E-1,-3.716669083E-1,6.571242057E-1
4.423562135E0,-4.863523245E-1,-1.385095119E-1,-5.030546188E-1,7.132933604E-1
4.428115469E0,-4.709846377E-1,-8.844514191E-2,-6.318283081E-1,7.930044660E-1
4.432668021E0,-3.988428116E-1,-4.278020561E-2,-6.767473221E-1,7.866973194E-1
4.437221406E0,-3.679315448E-1,1.747560501E-2,-7.239532471E-1,8.122729359E-1
4.441775469E0,-3.087898493E-1,6.827485561E-2,-6.730861664E-1,7.436784347E-1
4.446328802E0,-2.694202065E-1,1.360173225E-1,-6.437425613E-1,7.109799188E-1
4.450881354E0,-2.428521514E-1,1.631496996E-1,-6.167697906E-1,6.826419021E-1
4.455434739E0,-2.290180027E-1,1.904975325E-1,-5.802164078E-1,6.522190087E-1
4.459988802E0,-2.089472413E-1,2.012247443E-1,-5.364742279E-1,6.098810905E-1
4.464542135E0,-1.873715520E-1,2.048506886E-1,-4.903383255E-1,5.634745572E-1
4.469094635E0,-1.451719999E-1,1.702606976E-1,-4.155244827E-1,4.719366594E-1
4.473648021E0,-1.281117797E-1,9.739558399E-2,-3.502817154E-1,3.854812680E-1
4.478202083E0,-6.240254641E-2,4.606224597E-2,-2.467842102E-1,2.586856291E-1
4.482755416E0,-1.010119915E-3,-8.658054471E-2,-1.647996902E-1,1.861616206E-1
4.487307969E0,7.752859592E-2,-2.143881619E-1,-1.090726852E-1,2.527247867E-1
4.491861354E0,1.255636811E-1,-3.468563259E-1,-5.089569092E-2,3.723787322E-1
4.496415416E0,2.223338485E-1,-4.910281897E-1,-4.628181458E-3,5.390384432E-1
4.500968750E0,3.132064342E-1,-6.087545156E-1,9.185791016E-2,6.907374367E-1
4.505521302E0,3.793511987E-1,-7.076117396E-1,2.026329041E-1,8.280590558E-1
4.510074687E0,4.403029084E-1,-7.972841263E-1,3.228721619E-1,9.663203724E-1
4.514628750E0,4.870104194E-1,-8.493145108E-1,4.190692902E-1,1.064956974E0
4.519182083E0,5.199416876E-1,-9.141381383E-1,4.721002579E-1,1.152764741E0
4.523734635E0,5.371119976E-1,-9.631104469E-1,4.867687225E-1,1.205410644E0
4.528287969E0,5.747178197E-1,-9.892361164E-1,4.678716660E-1,1.236039062E0
4.532842083E0,5.614264011E-1,-9.828631878E-1,4.130306244E-1,1.204912423E0
4.537395416E0,5.359293222E-1,-9.511911869E-1,2.768497467E-1,1.126335072E0
4.541947916E0,5.319187641E-1,-8.965243697E-1,1.430540085E-1,1.052215741E0
4.546501302E0,4.612720609E-1,-8.377368450E-1,-2.184200287E-2,9.565835085E-1
4.551055364E0,3.910975456E-1,-7.627729177E-1,-1.867418289E-1,8.772983101E-1
4.555608698E0,3.572393060E-1,-6.762623787E-1,-3.540325165E-1,8.427868944E-1
4.560161250E0,2.806727290E-1,-5.995628834E-1,-5.380363464E-1,8.530744059E-1
4.564714635E0,1.945750713E-1,-5.108836293E-1,-7.267532349E-1,9.094128905E-1
4.569268698E0,1.657053828E-1,-4.387576878E-1,-9.249382019E-1,1.037052197E0
4.573822031E0,1.052303314E-1,-3.612748086E-1,-1.113433838E0,1.175299035E0
4.578374583E0,8.460563421E-2,-3.140278757E-1,-1.308954239E0,1.348752320E0
4.582927969E0,5.821239948E-2,-2.440858185E-1,-1.470851898E0,1.492103172E0
4.587482031E0,4.984682798E-2,-1.800110936E-1,-1.620669365E0,1.631397527E0
4.592035364E0,3.302758932E-2,-9.306571633E-2,-1.724948883E0,1.727773335E0
4.596587916E0,4.312396049E-4,-7.190473378E-3,-1.812412262E0,1.812426577E0
4.601141302E0,-7.621526718E-3,3.926809132E-2,-1.866328239E0,1.866756858E0
4.605695364E0,-2.973031998E-2,8.915061504E-2,-1.862812042E0,1.865181071E0
4.610248698E0,-3.292375803E-2,1.183341369E-1,-1.899884224E0,1.903850573E0
4.614801250E0,-3.206223249E-2,1.435733736E-1,-1.927280426E0,1.932886738E0
4.619354635E0,-8.499908447E-2,1.504264176E-1,-1.937813759E0,1.945501250E0
4.623908698E0,-1.106339693E-1,1.747061163E-1,-1.936279297E0,1.947290327E0
4.628462031E0,-1.473522186E-1,1.993279755E-1,-1.908349037E0,1.924380515E0
4.633014583E0,-1.379510164E-1,2.119659483E-1,-1.849267960E0,1.866481190E0
4.637567969E0,-1.351701021E-1,2.290293127E-1,-1.751900673E0,1.771971035E0
4.642122031E0,-1.201053262E-1,2.430711687E-1,-1.659302711E0,1.681307340E0
4.646675364E0,-1.191207170E-1,2.442742139E-1,-1.545179367E0,1.568897356E0
4.651227916E0,-1.105785966E-1,2.611104250E-1,-1.469305992E0,1.496417849E0
4.655781302E0,-8.715462685E-2,2.768409550E-1,-1.393408775E0,1.423314743E0
4.660335364E0,-5.348202586E-2,2.723474503E-1,-1.315107346E0,1.344076185E0
4.664888698E0,-1.407945156E-2,2.549453378E-1,-1.263092995E0,1.288642413E0
4.669441250E0,8.881092072E-5,2.511040866E-1,-1.218225479E0,1.243835435E0
4.673994635E0,6.004095078E-3,2.421783805E-1,-1.170951843E0,1.195748567E0
4.678548698E0,6.358778477E-2,2.379567623E-1,-1.140403748E0,1.166699419E0
4.683102031E0,8.446425200E-2,2.268718928E-1,-1.124183655E0,1.149953893E0
4.687654583E0,1.143621206E-1,2.163823098E-1,-1.122294426E0,1.148670874E0
4.692207969E0,1.822260618E-1,1.996927410E-1,-1.072607040E0,1.106150709E0
4.696762031E0,2.597749233E-1,1.938131601E-1,-1.032570839E0,1.082242620E0
4.701315364E0,3.113719225E-1,1.581624746E-1,-9.950218201E-1,1.054531301E0
4.705867916E0,3.517236114E-1,1.238377839E-1,-9.241304398E-1,9.965251453E-1
4.710421302E0,3.810079098E-1,9.795249999E-2,-8.605766296E-1,9.462313961E-1
4.714975364E0,4.257494211E-1,9.466835856E-2,-7.709026337E-1,8.857288176E-1
4.719528698E0,4.619240761E-1,9.221974015E-2,-6.766443253E-1,8.244548959E-1
4.724081250E0,4.776503444E-1,8.093082905E-2,-5.706377029E-1,7.485499573E-1
4.728634635E0,4.706749320E-1,7.737457752E-2,-5.269832611E-1,7.107974918E-1
4.733188698E0,4.578096867E-1,5.508945882E-2,-4.954185486E-1,6.768043262E-1
4.737742031E0,4.223857522E-1,3.072169423E-2,-4.591999054E-1,6.246743946E-1
4.742294583E0,4.070622325E-1,3.761945665E-2,-3.920164108E-1,5.663848082E-1
4.746847969E0,3.876942396E-1,1.361417770E-2,-3.751478195E-1,5.396554973E-1
4.751402031E0,3.569547534E-1,1.125794649E-2,-3.583316803E-1,5.059101011E-1
4.755955364E0,3.698765039E-1,-2.199588716E-2,-3.344039917E-1,4.991176984E-1
4.760507916E0,3.498179913E-1,-5.737015605E-2,-3.272628784E-1,4.824572037E-1
4.765061302E0,3.398956060E-1,-1.139809936E-1,-3.321094513E-1,4.886894490E-1
4.769615364E0,3.185313344E-1,-1.297163367E-1,-3.250274658E-1,4.732138972E-1
4.774168698E0,2.736175060E-1,-1.813093573E-1,-3.251333237E-1,4.620079012E-1
4.778721250E0,2.694844007E-1,-1.826154590E-1,-3.395767212E-1,4.704068427E-1
4.783274635E0,2.126586437E-1,-1.767638475E-1,-3.229198456E-1,4.251427798E-1
4.787828750E0,1.508914828E-1,-1.759318113E-1,-3.086500168E-1,3.859858478E-1
4.792382083E0,8.646500111E-2,-1.707736701E-1,-2.824153900E-1,3.411719439E-1
4.796934583E0,5.039495230E-2,-1.542917490E-1,-2.442274094E-1,2.932449872E-1
4.801487969E0,-2.758562565E-3,-1.625161171E-1,-2.179965973E-1,2.719220742E-1
4.806042083E0,-3.394901752E-3,-1.643493026E-1,-2.037239075E-1,2.617740421E-1
4.810595416E0,-2.088868618E-2,-1.550761163E-1,-2.467985153E-1,2.922232815E-1
4.815147969E0,-5.755752325E-2,-1.345403492E-1,-2.252731323E-1,2.686297791E-1
4.819701354E0,-6.580093503E-2,-1.025921404E-1,-2.634944916E-1,2.903175114E-1
4.824255416E0,-1.101818085E-1,-7.814444602E-2,-2.968626022E-1,3.261502567E-1
4.828808750E0,-1.260759532E-1,-6.797394156E-2,-3.469057083E-1,3.753121010E-1
4.833361302E0,-1.493665576E-1,-4.822021723E-2,-3.705844879E-1,4.024530042E-1
4.837914687E0,-1.537543833E-1,-2.806961536E-2,-3.942251205E-1,4.240775393E-1
4.842468750E0,-1.512634158E-1,-2.695634961E-3,-4.034891129E-1,4.309191938E-1
4.847022083E0,-1.731356680E-1,1.839162409E-2,-3.625421524E-1,4.021828237E-1
4.851574635E0,-1.859905720E-1,3.530590236E-2,-3.383607864E-1,3.877202876E-1
4.856128021E0,-1.921695471E-1,3.132221103E-2,-3.046360016E-1,3.615429562E-1
4.860682135E0,-2.129108310E-1,7.071478665E-2,-2.613906860E-1,3.444658093E-1
4.865235469E0,-2.289107293E-1,8.662149310E-2,-1.943035126E-1,3.125016161E-1
4.869787969E0,-2.567389905E-1,1.027534455E-1,-1.201400757E-1,3.015075747E-1
4.874341406E0,-2.702551484E-1,9.031957388E-2,-7.829666138E-3,2.850557390E-1
4.878895469E0,-3.030453324E-1,8.520527184E-2,9.239768982E-2,3.280758219E-1
4.883448802E0,-3.287429810E-1,5.878019333E-2,1.494865417E-1,3.658869837E-1
4.888001354E0,-3.401299715E-1,1.829293370E-2,2.112817764E-1,4.008279157E-1
4.892554739E0,-3.299429119E-1,-5.542039871E-4,2.706089020E-1,4.267221696E-1
4.897108802E0,-3.198259771E-1,-2.885898948E-2,3.179140091E-1,4.518747770E-1
4.901662135E0,-3.052192926E-1,-7.633733004E-2,3.914632797E-1,5.022247544E-1
4.906214687E0,-2.887380123E-1,-9.294527769E-2,4.577779770E-1,5.491531122E-1
4.910768073E0,-2.655484080E-1,-1.314650327E-1,5.359840393E-1,6.124360393E-1
4.915322135E0,-2.306026220E-1,-1.777015626E-1,6.164989471E-1,6.817817587E-1
4.919875469E0,-2.767914832E-1,-2.055207789E-1,6.491222382E-1,7.349911535E-1
4.924428021E0,-3.725101352E-1,-2.053264678E-1,6.482334137E-1,7.753252981E-1
4.928981458E0,-6.085723639E-1,-7.655035704E-2,6.234340668E-1,8.745800791E-1
4.933535521E0,-8.277950287E-1,1.477976590E-1,4.887390137E-1,9.726019643E-1
4.938088854E0,-1.011965156E0,3.321560919E-1,3.781404495E-1,1.130217388E0
4.942641406E0,-1.102311254E0,3.652475476E-1,2.940177917E-1,1.197890785E0
4.947194791E0,-1.092484236E0,2.885543704E-1,2.530860901E-1,1.157945594E0
4.951748854E0,-1.025553465E0,1.388978362E-1,2.505016327E-1,1.064802135E0
4.956302187E0,-8.893952370E-1,7.741928101E-3,3.029432297E-1,9.396054626E-1
4.960854739E0,-7.840566039E-1,-1.237718314E-1,4.127302170E-1,8.946566137E-1
4.965408125E0,-6.562932730E-1,-1.983302534E-1,6.252002716E-1,9.278637449E-1
4.969962187E0,-5.459628105E-1,-2.116657197E-1,9.067659378E-1,1.079399015E0
4.974515573E0,-5.019902587E-1,-1.549254358E-1,1.190401077E0,1.301172869E0
4.979068125E0,-4.920515120E-1,-7.200447470E-2,1.413938522E0,1.498840045E0
4.983621510E0,-5.413388014E-1,-1.146401651E-2,1.565469742E0,1.656464498E0
4.988175573E0,-5.581875443E-1,7.082384080E-3,1.621154785E0,1.714574680E0
4.992728906E0,-5.785408616E-1,-6.958376616E-2,1.631302834E0,1.732252973E0
4.997281458E0,-5.619924664E-1,-1.890613437E-1,1.533849716E0,1.644467901E0
5.001834844E0,-4.689577818E-1,-3.755792379E-1,1.400670052E0,1.524092438E0
5.006388906E0,-3.509366512E-1,-6.004326344E-1,1.241423607E0,1.422957643E0
5.010942239E0,-2.043454945E-1,-8.752536178E-1,1.015574455E0,1.356177514E0
5.015494791E0,-1.016297638E-1,-1.125496864E0,7.853822708E-1,1.376189344E0
5.020048177E0,-2.655199170E-2,-1.351061583E0,5.867328644E-1,1.473203266E0
5.024602291E0,8.261346817E-2,-1.523410559E0,4.865188599E-1,1.601344846E0
5.029155625E0,2.180908322E-1,-1.666688919E0,5.467729568E-1,1.767590515E0
5.033708177E0,3.174778819E-1,-1.793103218E0,6.979923248E-1,1.950180669E0
5.038261562E0,3.549031913E-1,-1.898158073E0,8.683414459E-1,2.117304233E0
5.042815625E0,3.266421556E-1,-1.982600212E0,1.021872520E0,2.254245361E0
5.047368958E0,3.414060175E-1,-1.949480295E0,1.239749908E0,2.335382480E0
5.051921510E0,3.189110458E-1,-1.883756876E0,1.438125610E0,2.391327977E0
5.056474896E0,2.430179715E-1,-1.786559582E0,1.633633614E0,2.433025207E0
5.061029010E0,1.020604968E-1,-1.675314188E0,1.709096909E0,2.395434453E0
5.065582344E0,-8.715498447E-2,-1.612504959E0,1.707633972E0,2.350272754E0
5.070134896E0,-3.008278012E-1,-1.521691561E0,1.562403679E0,2.201623907E0
5.074688281E0,-4.724006951E-1,-1.450312614E0,1.299904823E0,2.004076258E0
5.079242344E0,-6.598979235E-1,-1.380895853E0,1.001602173E0,1.829083251E0
5.083795729E0,-8.277869225E-1,-1.360234976E0,6.222105026E-1,1.709566111E0
5.088348229E0,-1.021829128E0,-1.332132936E0,2.336139679E-1,1.695077701E0
5.092901666E0,-1.172629833E0,-1.281319499E0,-1.043682098E-1,1.740038249E0
5.097455729E0,-1.323203564E0,-1.175977707E0,-4.060935974E-1,1.816233258E0
5.102009062E0,-1.442597270E0,-1.041799307E0,-5.831422806E-1,1.872561774E0
5.106561614E0,-1.554637790E0,-8.878832459E-1,-7.646942139E-1,1.946790322E0
5.111115000E0,-1.633110046E0,-7.401680946E-1,-8.622980118E-1,1.989586664E0
5.115669062E0,-1.677843332E0,-6.437856555E-1,-9.166812897E-1,2.017404968E0
5.120222448E0,-1.707785606E0,-5.626676083E-1,-9.709157944E-1,2.043478406E0
5.124775000E0,-1.703511357E0,-5.256507397E-1,-9.676656723E-1,2.028456679E0
5.129328385E0,-1.700804472E0,-4.994010329E-1,-9.285221100E-1,2.001072351E0
5.133882448E0,-1.649640560E0,-4.674575925E-1,-8.870000839E-1,1.930440294E0
5.138435781E0,-1.660233498E0,-4.254381657E-1,-8.407249451E-1,1.908976514E0
5.142988333E0,-1.651535988E0,-3.974815011E-1,-7.395172119E-1,1.852686797E0
5.147541719E0,-1.633625507E0,-3.741753101E-1,-6.766433716E-1,1.807369833E0
5.152095833E0,-1.625973105E0,-3.699653745E-1,-6.329355240E-1,1.783611588E0
5.156649166E0,-1.593007922E0,-3.826044798E-1,-5.916442871E-1,1.741867788E0
5.161201719E0,-1.554214954E0,-4.263502955E-1,-5.623140335E-1,1.706914108E0
5.165755104E0,-1.500219107E0,-4.869890809E-1,-4.995326996E-1,1.654493473E0
5.170309166E0,-1.440935850E0,-5.169171095E-1,-4.176864624E-1,1.586808559E0
5.174862500E0,-1.381326079E0,-5.569043756E-1,-3.287534714E-1,1.525215744E0
5.179415104E0,-1.326178074E0,-5.760297775E-1,-2.279710770E-1,1.463738160E0
5.183968489E0,-1.273151875E0,-6.101569533E-1,-1.392498016E-1,1.418660534E0
5.188522552E0,-1.226916909E0,-6.425859928E-1,-2.673339844E-2,1.385264067E0
5.193075885E0,-1.180013299E0,-6.950388551E-1,7.129669189E-2,1.371347372E0
5.197628437E0,-1.117770791E0,-7.461411953E-1,1.763525009E-1,1.355447686E0
5.202181823E0,-1.066107273E0,-7.627069950E-1,2.931814194E-1,1.343228209E0
5.206735937E0,-1.036566973E0,-7.711172700E-1,3.739633560E-1,1.344968968E0
5.211289271E0,-1.019392014E0,-8.048335314E-1,4.259119034E-1,1.366864309E0
5.215841823E0,-1.000054359E0,-8.184100986E-1,4.227743149E-1,1.359647724E0
5.220395208E0,-9.853903055E-1,-8.331566453E-1,3.909139633E-1,1.348316645E0
5.224949271E0,-9.654448032E-1,-8.250049353E-1,3.160276413E-1,1.308659727E0
5.229502656E0,-9.302203655E-1,-8.057084680E-1,2.411813736E-1,1.254051242E0
5.234055208E0,-8.985201120E-1,-7.822840214E-1,1.663780212E-1,1.202908279E0
5.238608594E0,-8.702315092E-1,-7.330696583E-1,9.400749207E-2,1.141723001E0
5.243162656E0,-8.668598533E-1,-6.743881702E-1,2.578735352E-3,1.098295069E0
5.247715989E0,-8.405761123E-1,-6.034193039E-1,-9.352588654E-2,1.038956278E0
5.252268541E0,-8.415444493E-1,-5.031261444E-1,-2.349195480E-1,1.008226250E0
5.256821927E0,-8.287197351E-1,-4.235800505E-1,-3.809261322E-1,1.005634713E0
5.261376041E0,-8.066856265E-1,-3.525453806E-1,-4.837436676E-1,1.004508776E0
5.265929375E0,-8.064625859E-1,-2.876252830E-1,-5.625476837E-1,1.024485287E0
5.270481927E0,-8.543151617E-1,-2.169872522E-1,-6.412734985E-1,1.090031909E0
5.275035312E0,-8.715937138E-1,-1.477662027E-1,-7.175159454E-1,1.138569095E0
5.279589427E0,-9.399739504E-1,-6.334689260E-2,-7.673730850E-1,1.215082428E0
5.284142760E0,-1.012204051E0,-1.888173819E-2,-8.075895309E-1,1.295034521E0
5.288695312E0,-1.050543666E0,3.346920013E-2,-8.405523300E-1,1.345841893E0
5.293248698E0,-1.093599677E0,1.705285907E-2,-8.399782181E-1,1.379062892E0
5.297802760E0,-1.129693985E0,-1.563391089E-2,-8.656539917E-1,1.423309437E0
5.302356146E0,-1.171168804E0,-5.039060116E-2,-8.769178391E-1,1.463953714E0
5.306908698E0,-1.175379992E0,-6.586402655E-2,-9.311418533E-1,1.500960141E0
5.311462083E0,-1.204721332E0,-4.561847448E-2,-9.685354233E-1,1.546446054E0
5.316016146E0,-1.259543777E0,-1.141953468E-2,-9.556636810E-1,1.581098986E0
5.320569479E0,-1.289904356E0,7.880926132E-3,-9.188785553E-1,1.583746557E0
5.325122031E0,-1.296056032E0,-1.925730705E-2,-8.414945602E-1,1.545394829E0
5.329675416E0,-1.278148174E0,-9.296685457E-3,-7.689752579E-1,1.491667567E0
5.334229531E0,-1.286125064E0,-2.718943357E-2,-7.061071396E-1,1.467461835E0
5.338782864E0,-1.269498587E0,-3.943705559E-2,-6.958999634E-1,1.448260578E0
5.343335416E0,-1.249423027E0,-5.804443359E-2,-6.522569656E-1,1.410626175E0
5.347888802E0,-1.213627934E0,-4.954662919E-2,-6.182384491E-1,1.362925681E0
5.352442916E0,-1.181088448E0,-4.737609625E-2,-5.818738937E-1,1.317494457E0
5.356996250E0,-1.127627373E0,-6.552529335E-2,-5.646677017E-1,1.262809039E0
5.361548802E0,-1.096395969E0,-9.412693977E-2,-5.474615097E-1,1.229088324E0
5.366102187E0,-1.073029995E0,-1.040488034E-1,-5.971508026E-1,1.232399531E0
5.370656302E0,-1.023953676E0,-1.069306880E-1,-6.801872253E-1,1.233924619E0
5.375209635E0,-9.582576752E-1,-9.027242661E-2,-7.439537048E-1,1.216500718E0
5.379762187E0,-9.092010260E-1,-7.544581592E-2,-7.813091278E-1,1.201158828E0
5.384315573E0,-8.716541529E-1,-4.322785139E-2,-7.946882248E-1,1.180330032E0
5.388869635E0,-8.142572641E-1,-2.699203789E-2,-7.841320038E-1,1.130754819E0
5.393423021E0,-7.584865093E-1,3.530163318E-2,-7.592382431E-1,1.073774045E0
5.397975573E0,-7.257910967E-1,8.612461388E-2,-7.248115540E-1,1.029340543E0
5.402528958E0,-7.065298557E-1,1.422599554E-1,-7.214975357E-1,1.019794600E0
5.407083021E0,-7.101335526E-1,2.085811198E-1,-7.253637314E-1,1.036314763E0
5.411636406E0,-7.340135574E-1,2.684531212E-1,-7.388000488E-1,1.075485236E0
5.416188958E0,-7.683617473E-1,2.981970310E-1,-7.713642120E-1,1.128850739E0
5.420742344E0,-7.773127556E-1,3.170181811E-1,-7.824068069E-1,1.147552203E0
5.425296406E0,-7.800666690E-1,2.938615382E-1,-7.647886276E-1,1.131264892E0
5.429849739E0,-7.886306047E-1,2.647442818E-1,-7.567815781E-1,1.124609320E0
5.434402291E0,-7.888742685E-1,2.225106061E-1,-7.750968933E-1,1.128099630E0
5.438955729E0,-7.976967096E-1,1.578413099E-1,-8.220872879E-1,1.156313724E0
5.443509791E0,-8.203043938E-1,1.162861139E-1,-8.642454147E-1,1.197222576E0
5.448063125E0,-8.402249813E-1,7.641979307E-2,-9.087390900E-1,1.240009975E0
5.452615677E0,-8.361704946E-1,2.145863697E-2,-8.695249557E-1,1.206530239E0
5.457169114E0,-8.346195817E-1,-3.434984386E-2,-8.590269089E-1,1.198205737E0
5.461723177E0,-8.164474964E-1,-6.993220747E-2,-7.935647964E-1,1.140711232E0
5.466276510E0,-7.985137105E-1,-3.795748949E-2,-6.875438690E-1,1.054410493E0
5.470829062E0,-8.022149801E-1,2.514765784E-2,-5.864276886E-1,9.940214852E-1
5.475382500E0,-8.037902117E-1,6.638191640E-2,-4.567518234E-1,9.268805163E-1
5.479936562E0,-8.010737896E-1,9.261164069E-2,-3.845796585E-1,8.934190764E-1
5.484489896E0,-7.772902846E-1,1.134674773E-1,-3.268251419E-1,8.508053411E-1
5.489042448E0,-7.468065023E-1,1.144501343E-1,-2.571868896E-1,7.981001700E-1
5.493595885E0,-7.384204865E-1,8.863297105E-2,-2.664861679E-1,7.900224655E-1
5.498149948E0,-7.233724594E-1,8.645626903E-2,-2.901020050E-1,7.841566009E-1
5.502703281E0,-7.135658860E-1,1.009976715E-1,-3.447456360E-1,7.988907040E-1
5.507255833E0,-7.327822447E-1,1.182276309E-1,-3.873615265E-1,8.372553631E-1
5.511809219E0,-7.473616004E-1,1.549800485E-1,-3.821210861E-1,8.535717320E-1
5.516363333E0,-7.762067914E-1,1.778309643E-1,-3.577661514E-1,8.729933871E-1
5.520916666E0,-7.927358150E-1,2.035258263E-1,-3.501739502E-1,8.902104413E-1
5.525469219E0,-8.302562237E-1,2.247805893E-1,-3.378210068E-1,9.241075386E-1
5.530022604E0,-8.373517990E-1,2.043514252E-1,-3.397912979E-1,9.264856536E-1
5.534576719E0,-8.699973822E-1,2.463124394E-1,-3.393774033E-1,9.657858379E-1
5.539130052E0,-9.041415453E-1,2.812230587E-1,-3.247356415E-1,1.001005284E0
5.543682604E0,-8.685854077E-1,3.160413802E-1,-3.292026520E-1,9.811713156E-1
5.548235989E0,-8.350952268E-1,3.363130093E-1,-2.814359665E-1,9.432373409E-1
5.552790104E0,-8.131450415E-1,3.608712852E-1,-2.459363937E-1,9.229938530E-1
5.557343437E0,-7.861403823E-1,3.444297016E-1,-2.059926987E-1,8.826559420E-1
5.561895989E0,-7.660436034E-1,3.561424017E-1,-1.758737564E-1,8.628973235E-1
5.566449375E0,-7.670887113E-1,3.790537119E-1,-1.744823456E-1,8.732416025E-1
5.571003489E0,-7.582547069E-1,3.942486644E-1,-1.707267761E-1,8.715100928E-1
5.575556823E0,-7.490640879E-1,4.282199144E-1,-1.717433929E-1,8.797528607E-1
5.580109375E0,-7.464758158E-1,4.523907304E-1,-1.846094131E-1,8.921682307E-1
5.584662760E0,-7.385686040E-1,4.788707793E-1,-2.139711380E-1,9.058611670E-1
5.589216875E0,-6.947577596E-1,4.580837488E-1,-2.003612518E-1,8.559636071E-1
5.593770208E0,-6.844309568E-1,4.262358248E-1,-1.963415146E-1,8.298630630E-1
5.598322760E0,-6.860055923E-1,3.740924597E-1,-1.923341751E-1,8.046994942E-1
5.602876146E0,-6.757028103E-1,3.187078238E-1,-1.741018295E-1,7.671117336E-1
5.607430260E0,-6.509736776E-1,2.766107023E-1,-1.085433960E-1,7.155849903E-1
5.611983594E0,-6.332404613E-1,2.639718056E-1,-3.401565552E-2,6.869000370E-1
5.616536146E0,-6.103057265E-1,2.874458134E-1,9.686183929E-2,6.815279828E-1
5.621089583E0,-5.775164962E-1,2.893489003E-1,2.266721725E-1,6.845643602E-1
5.625643646E0,-5.706017613E-1,3.004350662E-1,3.340663910E-1,7.262561206E-1
5.630196979E0,-5.444812775E-1,3.180882633E-1,4.144840240E-1,7.546105028E-1
5.634749531E0,-5.468819141E-1,3.018052578E-1,4.562835693E-1,7.735379353E-1
5.639302969E0,-5.422413945E-1,2.850902975E-1,4.384288788E-1,7.533406198E-1
5.643857031E0,-4.621340036E-1,2.563546598E-1,4.326009750E-1,6.829561864E-1
5.648410364E0,-4.070181847E-1,2.064268589E-1,3.864898682E-1,5.980386851E-1
5.652962916E0,-3.149380982E-1,1.995003819E-1,3.597536087E-1,5.180821046E-1
5.657516354E0,-2.238387316E-1,1.688928306E-1,3.379964828E-1,4.391698856E-1
5.662070416E0,-1.498875618E-1,1.692740917E-1,3.971157074E-1,4.569692379E-1
5.666623802E0,-8.312560618E-2,1.572928131E-1,4.747447968E-1,5.069847310E-1
5.671176302E0,-6.124132872E-2,1.660558730E-1,5.161561966E-1,5.456576515E-1
5.675729739E0,-1.525574327E-1,2.496883124E-1,5.643653870E-1,6.357092996E-1
5.680283802E0,-3.062990308E-1,4.124141634E-1,5.362720490E-1,7.426252412E-1
5.684837187E0,-4.700746238E-1,6.372844577E-1,4.420013428E-1,9.068995639E-1
5.689389739E0,-5.732226372E-1,7.726314664E-1,2.939643860E-1,1.005961547E0
5.693943125E0,-5.694478750E-1,7.866455317E-1,1.946306229E-1,9.904358405E-1
5.698497187E0,-4.340387881E-1,6.049736142E-1,1.269693375E-1,7.553171229E-1
5.703050573E0,-2.202447057E-1,3.318989873E-1,9.783458710E-2,4.101661548E-1
5.707603125E0,-1.861265302E-2,3.452492505E-2,9.742069244E-2,1.050199630E-1
5.712156510E0,1.474553645E-1,-1.614519656E-1,1.326103210E-1,2.557250847E-1
5.716710573E0,2.308006585E-1,-2.737687230E-1,2.742948532E-1,4.510608874E-1
5.721263958E0,2.320025563E-1,-2.846951485E-1,4.361534119E-1,5.701809471E-1
5.725816510E0,1.779056489E-1,-2.715120018E-1,5.895404816E-1,6.729986378E-1
5.730369896E0,1.211243570E-1,-2.632810473E-1,7.226524353E-1,7.785978179E-1
5.734924010E0,7.602605224E-2,-3.006264865E-1,8.214216232E-1,8.780032620E-1
5.739477344E0,8.538526297E-2,-3.405649662E-1,8.932542801E-1,9.597803646E-1
5.744029896E0,9.417179227E-2,-4.377628565E-1,9.241304398E-1,1.026899077E0
5.748583281E0,1.500684917E-1,-5.586847067E-1,9.571084976E-1,1.118349601E0
5.753137396E0,2.172019482E-1,-6.488398314E-1,9.755582809E-1,1.191588760E0
5.757690729E0,2.623700202E-1,-7.015415430E-1,9.701042175E-1,1.225602202E0
5.762243281E0,3.118071258E-1,-7.598794103E-1,9.551744461E-1,1.259761336E0
5.766796719E0,3.015246987E-1,-7.882180214E-1,9.023780823E-1,1.235512443E0
5.771350781E0,2.867637277E-1,-7.985664606E-1,8.096609116E-1,1.172813975E0
5.775904114E0,2.510086596E-1,-8.052083254E-1,6.892251968E-1,1.089218604E0
5.780456666E0,2.608183622E-1,-8.364826441E-1,5.413026810E-1,1.029921368E0
5.785010104E0,2.611263692E-1,-8.398133516E-1,3.732385635E-1,9.553954530E-1
5.789564166E0,2.140449584E-1,-8.035700321E-1,2.231674194E-1,8.610132042E-1
5.794117500E0,1.626789272E-1,-7.562248707E-1,7.908248901E-2,7.775567686E-1
5.798670104E0,1.259877086E-1,-6.646457911E-1,-5.906963348E-2,6.790553379E-1
5.803223489E0,1.036788225E-1,-5.741691589E-1,-1.509990692E-1,6.026775591E-1
5.807777552E0,8.823087811E-2,-4.939931333E-1,-2.018423080E-1,5.408828163E-1
5.812330937E0,5.822095275E-2,-4.240742028E-1,-2.546567917E-1,4.980749847E-1
5.816883489E0,3.743684292E-2,-3.569212854E-1,-2.951812744E-1,4.646787126E-1
5.821436875E0,3.065288067E-2,-2.949305773E-1,-3.519906998E-1,4.602402603E-1
5.825990989E0,3.062534332E-2,-2.307615280E-1,-3.632497787E-1,4.314385196E-1
5.830544323E0,8.928149939E-3,-1.882631481E-1,-3.981513977E-1,4.405079571E-1
5.835096875E0,-1.042217016E-3,-1.387172341E-1,-4.114103317E-1,4.341681913E-1
5.839650260E0,-3.969192505E-3,-1.059018075E-1,-4.150667191E-1,4.283822226E-1
5.844204375E0,-7.089823484E-3,-1.372376084E-1,-3.878479004E-1,4.114734750E-1
5.848757708E0,-1.763221622E-2,-1.656380296E-1,-3.703536987E-1,4.060895395E-1
5.853310260E0,-3.575360775E-2,-2.481343746E-1,-3.743791580E-1,4.505649146E-1
5.857863646E0,-6.845149398E-2,-3.199926019E-1,-3.641405106E-1,4.895704073E-1
5.862417760E0,-9.181684256E-2,-3.815295100E-1,-3.278999329E-1,5.113838730E-1
5.866971094E0,-1.130353212E-1,-3.926201165E-1,-3.251972198E-1,5.221884444E-1
5.871523646E0,-1.607003808E-1,-4.036959112E-1,-2.608480453E-1,5.067905917E-1
5.876077083E0,-2.014181018E-1,-4.077062011E-1,-2.113027573E-1,5.014403787E-1
5.880631146E0,-2.282848656E-1,-4.403710961E-1,-1.384801865E-1,5.149926642E-1
5.885184531E0,-2.246311903E-1,-4.871723056E-1,-9.239768982E-2,5.443650981E-1
5.889737083E0,-1.904838979E-1,-5.455743074E-1,-4.434204102E-2,5.795702347E-1
5.894290469E0,-1.042948365E-1,-6.224442720E-1,-1.803779602E-2,6.313791625E-1
5.898844583E0,-1.820322871E-2,-6.915845871E-1,5.078697205E-2,6.936857467E-1
5.903397916E0,4.207831621E-2,-7.506334782E-1,9.772682190E-2,7.581370160E-1
5.907950469E0,1.317268014E-1,-8.209197521E-1,1.443414688E-1,8.438576001E-1
5.912503854E0,2.224052548E-1,-8.617297411E-1,2.025241852E-1,9.127202691E-1
5.917057969E0,3.000403941E-1,-8.638787866E-1,2.033739090E-1,9.368413648E-1
5.921611302E0,3.316348493E-1,-8.514218330E-1,1.829643250E-1,9.318673485E-1
5.926163854E0,3.557698429E-1,-8.030258417E-1,1.367454529E-1,8.888880708E-1
5.930717291E0,3.415647447E-1,-7.331293821E-1,5.781936646E-2,8.108564885E-1
5.935271354E0,3.246709704E-1,-6.538475156E-1,-1.084136963E-2,7.300995466E-1
5.939824687E0,2.880661488E-1,-5.532973409E-1,-7.170486450E-2,6.279025729E-1
5.944377291E0,2.719858289E-1,-4.505417645E-1,-1.200914383E-1,5.398019324E-1
5.948930677E0,2.594329715E-1,-2.957704067E-1,-1.750936508E-1,4.306313815E-1
5.953484739E0,2.525341213E-1,-1.701590717E-1,-2.366638184E-1,3.856648221E-1
5.958038125E0,2.319177985E-1,-2.126109600E-2,-2.881526947E-1,3.704994938E-1
5.962590677E0,2.140764892E-1,1.531650126E-1,-3.747339249E-1,4.579451700E-1
5.967144062E0,2.080322802E-1,3.078328967E-1,-4.368190765E-1,5.734539454E-1
5.971698177E0,2.227734029E-1,4.928131998E-1,-4.675102234E-1,7.148836604E-1
5.976251510E0,2.530789077E-1,6.321101189E-1,-4.884433746E-1,8.379672226E-1
5.980804062E0,2.606124580E-1,7.855100036E-1,-5.139455795E-1,9.742098735E-1
5.985357448E0,2.717566192E-1,9.101656675E-1,-5.107622147E-1,1.078485625E0
5.989911562E0,2.721671760E-1,9.991207123E-1,-5.028724670E-1,1.151172397E0
5.994464896E0,2.242283523E-1,1.078567624E0,-4.808187485E-1,1.201987164E0
5.999017448E0,1.710008085E-1,1.153004408E0,-4.660968781E-1,1.255351242E0
6.003570885E0,1.338883042E-1,1.210341215E0,-4.112005234E-1,1.285277326E0
6.008124948E0,1.244611144E-1,1.262087226E0,-3.687038422E-1,1.320718463E0
6.012678333E0,1.279805303E-1,1.286706209E0,-3.385381699E-1,1.336637564E0
6.017230885E0,8.700734377E-2,1.263016462E0,-3.514795303E-1,1.313894487E0
6.021784271E0,8.210062981E-2,1.179780602E0,-3.834657669E-1,1.243249282E0
6.026338385E0,1.054517031E-1,1.059027076E0,-4.153747559E-1,1.142451135E0
6.030891719E0,1.282997727E-1,9.558017850E-1,-4.733037949E-1,1.074259916E0
6.035444271E0,1.458539367E-1,8.795545101E-1,-5.380477905E-1,1.041338049E0
6.039997708E0,1.796312034E-1,8.134953380E-1,-5.502138138E-1,9.983873372E-1
6.044551771E0,2.320340574E-1,7.573175430E-1,-5.031127930E-1,9.383454306E-1
6.049105104E0,2.508170903E-1,7.034320831E-1,-4.352083206E-1,8.643680875E-1
6.053657708E0,2.315701544E-1,6.893466711E-1,-3.585462570E-1,8.107891143E-1
6.058211094E0,2.007672489E-1,6.338258982E-1,-3.135337830E-1,7.350824379E-1
6.062765156E0,1.486881673E-1,5.888651609E-1,-2.572336197E-1,6.595752300E-1
6.067318541E0,1.253447831E-1,5.565284491E-1,-2.158355713E-1,6.099346056E-1
6.071871094E0,9.721490741E-2,5.484176874E-1,-1.797189713E-1,5.852449117E-1
6.076424479E0,4.798877239E-2,5.144444704E-1,-1.060943604E-1,5.274581014E-1
6.080978594E0,4.321604967E-3,4.783849120E-1,1.187038422E-2,4.785516757E-1
6.085531927E0,-3.074502945E-2,4.546530843E-1,1.216678619E-1,4.716542722E-1
6.090084479E0,-3.267380595E-2,4.242575169E-1,2.044372559E-1,4.720769109E-1
6.094637916E0,-2.691745758E-2,3.993742168E-1,2.106285095E-1,4.523148058E-1
6.099191979E0,-3.422108293E-2,3.967688680E-1,2.548103333E-1,4.727842246E-1
6.103745312E0,-4.215124249E-2,3.595169783E-1,2.797384262E-1,4.574743403E-1
6.108297916E0,-4.335680604E-2,3.166504800E-1,3.306655884E-1,4.598772341E-1
6.112851302E0,-6.862819195E-2,2.568323910E-1,3.290824890E-1,4.230460854E-1
6.117405416E0,-1.081520319E-1,1.379809827E-1,2.588224411E-1,3.126094522E-1
6.121958750E0,-1.047405303E-1,1.561087370E-2,1.869029999E-1,2.148185500E-1
6.126511302E0,-1.060365140E-1,-9.584793448E-2,1.275701523E-1,1.915847400E-1
6.131064687E0,-4.787482321E-2,-2.035010457E-1,8.782386780E-2,2.267547266E-1
6.135618802E0,3.608390689E-2,-2.861281931E-1,7.935237885E-2,2.991123389E-1
6.140172135E0,1.029237062E-1,-3.724095523E-1,9.476757050E-2,3.978228957E-1
6.144724739E0,1.336953193E-1,-4.505575001E-1,9.826087952E-2,4.801371677E-1
6.149278125E0,1.761580557E-1,-5.158969164E-1,7.568740845E-2,5.503724854E-1
6.153832187E0,2.183037102E-1,-5.995475054E-1,7.471370697E-2,6.424140870E-1
6.158385573E0,2.883387804E-1,-6.612328887E-1,4.531764984E-2,7.227875724E-1
6.162938125E0,3.406237364E-1,-7.275698185E-1,3.280067444E-2,8.040262774E-1
6.167491510E0,4.009745717E-1,-7.750176191E-1,1.328945160E-2,8.727024273E-1
6.172045625E0,4.758386016E-1,-8.207281232E-1,-1.318264008E-2,9.487838579E-1
6.176598958E0,5.170815587E-1,-8.410900831E-1,-2.757930756E-2,9.877076918E-1
6.181151510E0,5.670876503E-1,-8.908900023E-1,-8.458518982E-2,1.059447051E0
6.185704948E0,6.277119517E-1,-9.082447290E-1,-1.126642227E-1,1.109785569E0
6.190259010E0,7.439956665E-1,-9.077110291E-1,-1.120548248E-1,1.178993277E0
6.194812396E0,8.633172512E-1,-8.802651763E-1,-1.067218781E-1,1.237567378E0
6.199364948E0,1.007384419E0,-8.049899340E-1,-8.957862854E-2,1.292616143E0
6.203918333E0,1.135919571E0,-7.131919265E-1,-8.918094635E-2,1.344213241E0
6.208472448E0,1.289434671E0,-5.979941487E-1,-1.243619919E-1,1.426781230E0
6.213025781E0,1.427367568E0,-4.902018011E-1,-1.758241653E-1,1.519404527E0
6.217578333E0,1.540397167E0,-3.706490397E-1,-2.600259781E-1,1.605558362E0
6.222131771E0,1.643175364E0,-2.558243573E-1,-3.885383606E-1,1.707756843E0
6.226685833E0,1.758010626E0,-1.582771242E-1,-5.028457642E-1,1.835349250E0
6.231239219E0,1.885095477E0,-6.861588359E-2,-6.408014297E-1,1.992214740E0
6.235791771E0,1.928715587E0,1.106284931E-2,-7.713050842E-1,2.077252448E0
6.240345156E0,1.965295553E0,7.887081057E-2,-9.110975266E-1,2.167649861E0
6.244899271E0,1.989858270E0,1.591670811E-1,-1.019545555E0,2.241504680E0
6.249452604E0,1.980871081E0,2.356076390E-1,-1.125379562E0,2.290379960E0
6.254005156E0,1.971851110E0,2.845757008E-1,-1.219058990E0,2.335655144E0
6.258558594E0,1.951030135E0,3.564467430E-1,-1.298220634E0,2.370432383E0
6.263112656E0,1.940165639E0,3.915586472E-1,-1.360506058E0,2.401778011E0
6.267665989E0,1.872284055E0,4.427055418E-1,-1.394005775E0,2.375855189E0
6.272218594E0,1.766252041E0,4.765174687E-1,-1.386820793E0,2.295645243E0
6.276771979E0,1.657915473E0,5.194598436E-1,-1.429839134E0,2.250102708E0
6.281326094E0,1.542499900E0,5.549560785E-1,-1.427420616E0,2.173663223E0
6.285879427E0,1.429683924E0,6.069187522E-1,-1.425041199E0,2.107863589E0
6.290431979E0,1.281500101E0,6.205231547E-1,-1.408374786E0,2.002700935E0
6.294985416E0,1.150562763E0,6.173723340E-1,-1.346383095E0,1.875550775E0
6.299539479E0,1.031891584E0,6.021538377E-1,-1.196111679E0,1.690583519E0
6.304092812E0,9.156265259E-1,5.819972157E-1,-1.098680496E0,1.544082746E0
6.308645416E0,7.775750160E-1,5.303941965E-1,-9.703826904E-1,1.351881457E0
6.313198802E0,6.775493026E-1,4.973437190E-1,-8.542633057E-1,1.198411293E0
6.317752916E0,6.130965352E-1,4.416959882E-1,-7.455110550E-1,1.061493966E0
6.322306250E0,5.890524983E-1,3.966603279E-1,-6.249885559E-1,9.460089622E-1
6.326858802E0,5.310501456E-1,3.522199392E-1,-5.046453476E-1,8.128591942E-1
6.331412239E0,4.628591835E-1,3.533380330E-1,-3.940238953E-1,7.030940331E-1
6.335966302E0,3.864929676E-1,3.278761804E-1,-2.883243561E-1,5.831042257E-1
6.340519687E0,3.806612492E-1,3.428918123E-1,-2.162227631E-1,5.560845842E-1
6.345072239E0,3.545240462E-1,3.408704698E-1,-1.322669983E-1,5.092882635E-1
6.349625625E0,3.704199791E-1,3.241719902E-1,-6.275272369E-2,4.962220717E-1
6.354179739E0,3.782924414E-1,2.977097034E-1,3.057193756E-2,4.823597020E-1
6.358733073E0,4.236807227E-1,2.542755008E-1,9.749698639E-2,5.036536979E-1
6.363285625E0,4.638645053E-1,2.176827192E-1,1.667432785E-1,5.388500408E-1
6.367839062E0,4.797874689E-1,1.856419742E-1,2.430839539E-1,5.689892499E-1
6.372393125E0,4.620284438E-1,1.726499796E-1,3.121652603E-1,5.837169246E-1
6.376946510E0,4.321350753E-1,1.331655681E-1,3.835630417E-1,5.929539601E-1
6.381499062E0,3.996201754E-1,8.894822001E-2,4.477024078E-1,6.066675501E-1
6.386052448E0,3.669772446E-1,6.150937080E-2,4.998168945E-1,6.231152613E-1
6.390606562E0,3.272443712E-1,-1.842439175E-2,5.303611755E-1,6.234671709E-1
6.395159896E0,2.735320330E-1,-7.186713815E-2,5.799884796E-1,6.452683900E-1
6.399712448E0,2.658725381E-1,-1.368696690E-1,6.056499481E-1,6.754504959E-1
6.404265885E0,2.014358342E-1,-2.110838741E-1,6.121559143E-1,6.781354294E-1
6.408819948E0,1.926574409E-1,-2.826594114E-1,6.425504684E-1,7.279315469E-1
6.413373333E0,1.773227155E-1,-3.490993083E-1,6.561717987E-1,7.641172043E-1
6.417925885E0,1.411426514E-1,-4.154649079E-1,6.912889481E-1,8.187873640E-1
6.422479271E0,1.272586584E-1,-4.316258729E-1,6.881341934E-1,8.222069864E-1
6.427033385E0,8.533614874E-2,-4.430522621E-1,7.017192841E-1,8.342586642E-1
6.431586719E0,7.271601260E-2,-4.376894832E-1,6.889991760E-1,8.194995831E-1
6.436139323E0,5.084899440E-2,-4.082241058E-1,6.380510330E-1,7.591716944E-1
6.440692708E0,2.919307724E-2,-3.879252672E-1,5.895357132E-1,7.063218854E-1
6.445246823E0,6.527408957E-2,-3.121455014E-1,5.673465729E-1,6.508284371E-1
6.449800156E0,6.803897023E-2,-2.025178075E-1,5.212640762E-1,5.633462532E-1
6.454352708E0,8.033221960E-2,-1.334780455E-2,4.871520996E-1,4.939115281E-1
6.458906094E0,1.257272512E-1,1.790123582E-1,4.602022171E-1,5.095476883E-1
6.463460208E0,1.897584796E-1,3.126466274E-1,4.356136322E-1,5.687841689E-1
6.468013541E0,2.701007426E-1,3.686233163E-1,4.229412079E-1,6.226691142E-1
6.472566146E0,3.384706378E-1,3.755008578E-1,4.317417145E-1,6.648038620E-1
6.477119531E0,4.240396917E-1,3.928717375E-1,4.404935837E-1,7.267685048E-1
6.481673646E0,4.934636056E-1,4.514629841E-1,4.683322906E-1,8.164926764E-1
6.486226979E0,4.914845526E-1,4.889765084E-1,5.080690384E-1,8.595284981E-1
6.490779531E0,4.318782091E-1,5.028300881E-1,4.999494553E-1,8.302447488E-1
6.495332969E0,3.116641343E-1,4.716582596E-1,4.894351959E-1,7.477585556E-1
6.499887031E0,2.188958973E-1,3.882924020E-1,4.167833328E-1,6.102415504E-1
6.504440416E0,1.458625048E-1,2.814727128E-1,4.015617371E-1,5.116195725E-1
6.508992969E0,1.017457545E-1,1.700136364E-1,4.293766022E-1,4.728859287E-1
6.513546354E0,7.681539655E-2,6.081563234E-2,4.977979660E-1,5.073479686E-1
6.518100469E0,9.453836828E-2,-3.228363395E-2,5.972394943E-1,6.055367451E-1
6.522653802E0,1.116032824E-1,-1.238678098E-1,7.109479904E-1,7.302366548E-1
6.527206406E0,1.735684276E-1,-1.973745823E-1,8.174161911E-1,8.586337719E-1
6.531759791E0,2.781918049E-1,-3.342974484E-1,9.095039368E-1,1.008138322E0
6.536313854E0,3.781142831E-1,-4.773638844E-1,1.025483131E0,1.192670257E0
6.540867239E0,4.786229134E-1,-5.834915042E-1,1.088858604E0,1.324822739E0
6.545419791E0,5.420410633E-1,-7.051360607E-1,1.147489548E0,1.451811848E0
6.549973177E0,5.761300325E-1,-8.038746715E-1,1.170311928E0,1.532243554E0
6.554527291E0,5.717607737E-1,-8.554537892E-1,1.178862572E0,1.564745516E0
6.559080625E0,5.509427786E-1,-9.528057575E-1,1.165970802E0,1.603391614E0
6.563633229E0,5.334189534E-1,-1.017117858E0,1.129261971E0,1.610682189E0
6.568186614E0,4.936029315E-1,-1.062770009E0,1.095033646E0,1.603815024E0
6.572740729E0,4.679161608E-1,-1.073218346E0,1.051313400E0,1.573532020E0
6.577294062E0,4.138261080E-1,-1.106081367E0,9.837570190E-1,1.537025019E0
6.581846614E0,3.361469209E-1,-1.125703573E0,9.019479752E-1,1.481118981E0
6.586400052E0,1.846077144E-1,-1.112932324E0,7.963371277E-1,1.380887826E0
6.590954114E0,4.500287771E-2,-1.136946440E0,6.287107468E-1,1.299980642E0
6.595507500E0,-1.044730246E-1,-1.133000374E0,4.063177109E-1,1.208179847E0
6.600060052E0,-2.210766971E-1,-1.112905264E0,2.104749680E-1,1.154007255E0
6.604613437E0,-3.338758349E-1,-1.105406761E0,1.965236664E-2,1.154895405E0
6.609167552E0,-4.049823880E-1,-1.057792902E0,-1.685371399E-1,1.145138125E0
6.613720885E0,-4.420149028E-1,-1.029737711E0,-3.158512115E-1,1.164258956E0
6.618273489E0,-4.694163799E-1,-9.708067775E-1,-4.534015656E-1,1.169782252E0
6.622826875E0,-4.684757590E-1,-9.335032701E-1,-5.764131546E-1,1.192958514E0
6.627380989E0,-4.562311471E-1,-8.817888498E-1,-6.514425278E-1,1.187466127E0
6.631934323E0,-4.257958531E-1,-7.940068245E-1,-7.191762924E-1,1.152806786E0
6.636486875E0,-3.606752157E-1,-7.035545111E-1,-7.963485718E-1,1.122161579E0
6.641040312E0,-2.443364412E-1,-5.866588354E-1,-8.112373352E-1,1.030521664E0
6.645594375E0,-9.822049737E-2,-4.696526229E-1,-7.806539536E-1,9.163195117E-1
6.650147760E0,3.497663140E-2,-3.527692556E-1,-7.428894043E-1,8.231367927E-1
6.654700312E0,1.460745633E-1,-2.361955047E-1,-6.812257767E-1,7.356593323E-1
6.659253698E0,2.283400893E-1,-1.461888552E-1,-6.530675888E-1,7.071121929E-1
6.663807812E0,2.723283172E-1,-7.328501344E-2,-6.201295853E-1,6.812445288E-1
6.668361146E0,3.094577491E-1,-1.030963659E-2,-5.895977020E-1,6.659548313E-1
6.672913750E0,3.230854273E-1,1.655244827E-2,-5.590887070E-1,6.459399037E-1
6.677467135E0,3.300906420E-1,5.757153034E-2,-5.787963867E-1,6.687896308E-1
6.682021250E0,2.992579639E-1,6.270056963E-2,-6.534442902E-1,7.214403168E-1
6.686574583E0,2.688802183E-1,2.753335238E-2,-7.160663605E-1,7.653794418E-1
6.691127135E0,2.316217422E-1,-2.087950706E-3,-7.714805603E-1,8.055031011E-1
6.695680573E0,1.994352639E-1,-4.523688555E-2,-8.722724915E-1,8.959241595E-1
6.700234635E0,1.338927150E-1,-8.259731531E-2,-9.012937546E-1,9.149207658E-1
6.704788021E0,4.697597027E-2,-1.261153817E-1,-8.920917511E-1,9.021859696E-1
6.709340573E0,-3.241747618E-2,-1.542555094E-1,-8.949165344E-1,9.086920592E-1
6.713893958E0,-1.208809316E-1,-1.910900474E-1,-9.169225693E-1,9.443911287E-1
6.718448073E0,-1.895196438E-1,-2.009696364E-1,-9.126768112E-1,9.535646029E-1
6.723001406E0,-2.695120573E-1,-2.055187225E-1,-8.654766083E-1,9.294753648E-1
6.727554010E0,-3.442366123E-1,-1.786666811E-1,-8.398809433E-1,9.251057383E-1
6.732107396E0,-4.473354816E-1,-1.585180759E-1,-8.717155457E-1,9.925346372E-1
6.736661510E0,-5.116975904E-1,-1.306672692E-1,-8.868350983E-1,1.032174816E0
6.741214844E0,-5.420553684E-1,-1.190087199E-1,-9.211149216E-1,1.075378908E0
6.745767396E0,-5.646231174E-1,-1.066347361E-1,-9.100275040E-1,1.076252893E0
6.750320833E0,-5.458493233E-1,-8.620983362E-2,-9.157810211E-1,1.069597353E0
6.754874896E0,-4.953925014E-1,-6.725424528E-2,-8.977298737E-1,1.027548437E0
6.759428281E0,-4.561406076E-1,-4.020965099E-2,-8.606948853E-1,9.749239742E-1
6.763980833E0,-4.399596453E-1,-2.599596977E-3,-8.333864212E-1,9.423927920E-1
6.768534271E0,-4.228572249E-1,5.261427164E-2,-7.871103287E-1,8.950526039E-1
6.773088333E0,-3.783632815E-1,8.237773180E-2,-7.434082031E-1,8.382127534E-1
6.777641719E0,-3.495623469E-1,1.224415898E-1,-6.927032471E-1,7.855084760E-1
6.782194271E0,-2.981218398E-1,1.179730296E-1,-6.517477036E-1,7.263396837E-1
6.786747656E0,-2.431781292E-1,1.047052741E-1,-6.396341324E-1,6.922648483E-1
6.791301771E0,-2.182459235E-1,9.465235472E-2,-6.563234329E-1,6.981051497E-1
6.795855104E0,-1.851679981E-1,2.812224627E-2,-6.611461639E-1,6.871624978E-1
6.800407708E0,-1.655827165E-1,-8.607745171E-3,-6.612873077E-1,6.817570188E-1
6.804961094E0,-1.692628562E-1,-5.157232285E-2,-6.519460678E-1,6.755318603E-1
6.809515208E0,-2.154275775E-1,-6.739866734E-2,-6.474580765E-1,6.856774623E-1
6.814068541E0,-2.992150784E-1,-7.060861588E-2,-6.191272736E-1,6.912552500E-1
6.818621094E0,-3.847525716E-1,-5.669397116E-2,-6.290979385E-1,7.396032477E-1
6.823174531E0,-4.673197865E-1,-1.382333040E-2,-6.462440491E-1,7.976278821E-1
6.827728594E0,-5.209774375E-1,-6.764590740E-3,-6.514043808E-1,8.341408259E-1
6.832281979E0,-5.677809715E-1,-1.889979839E-2,-6.780223846E-1,8.845602230E-1
6.836834531E0,-5.795617104E-1,-8.110368252E-2,-6.639194489E-1,8.850189930E-1
6.841387916E0,-5.399765968E-1,-1.692894101E-1,-7.286319733E-1,9.225715051E-1
6.845942031E0,-4.683192968E-1,-2.209614217E-1,-7.454175949E-1,9.076311500E-1
6.850495416E0,-4.170991182E-1,-2.123265266E-1,-7.621316910E-1,8.943706965E-1
6.855047969E0,-3.619506955E-1,-1.721957326E-1,-7.787942886E-1,8.758882465E-1
6.859601354E0,-2.786880732E-1,-1.507484019E-1,-7.093820572E-1,7.769266541E-1
6.864155469E0,-1.886175871E-1,-1.242423654E-1,-5.779047012E-1,6.204728868E-1
6.868708802E0,-1.128541827E-1,-1.144326627E-1,-4.585266113E-1,4.858781269E-1
6.873261406E0,-6.282779574E-2,-1.071850359E-1,-3.082256317E-1,3.323236433E-1
6.877814791E0,-9.323567152E-3,-5.492246151E-2,-2.393741608E-1,2.457710205E-1
6.882368906E0,-2.198517323E-3,-5.721002817E-3,-1.753997803E-1,1.755068269E-1
6.886922239E0,-5.492538214E-3,5.937200785E-2,-1.377983093E-1,1.501451876E-1
6.891474791E0,-4.064691067E-2,1.427827179E-1,-1.193704605E-1,1.904950990E-1
6.896028229E0,-5.742946267E-2,1.706261933E-1,-1.678981781E-1,2.461731895E-1
6.900582291E0,-6.319752336E-2,1.717602015E-1,-2.426614761E-1,3.039409248E-1
6.905135677E0,-5.346152186E-2,1.345942020E-1,-3.412370682E-1,3.706972757E-1
6.909688229E0,-5.002713203E-2,6.906706095E-2,-4.468631744E-1,4.549282026E-1
6.914241666E0,-6.760820746E-2,6.455570459E-3,-4.973840714E-1,5.019994607E-1
6.918795729E0,-6.827543676E-2,-1.250353456E-2,-5.119771957E-1,5.166609358E-1
6.923349114E0,-7.629103959E-2,-4.972815514E-3,-4.715471268E-1,4.777046623E-1
6.927901666E0,-9.425668418E-2,1.195731759E-2,-4.167737961E-1,4.274666034E-1
6.932455052E0,-1.029284745E-1,4.045191407E-2,-3.357219696E-1,3.534683424E-1
6.937009166E0,-6.874848902E-2,8.000040054E-2,-2.762165070E-1,2.956720777E-1
6.941562500E0,-6.324678659E-2,1.424215436E-1,-1.952161789E-1,2.497867262E-1
6.946115104E0,-2.413247526E-2,1.845534444E-1,-1.333780289E-1,2.289804550E-1
6.950668489E0,-8.791103959E-3,2.184237242E-1,-9.068393707E-2,2.366638613E-1
6.955222604E0,2.832745016E-2,2.512103915E-1,-1.053466797E-1,2.738741101E-1
6.959775937E0,1.555176079E-2,2.926373482E-1,-1.199474335E-1,3.166478511E-1
6.964328489E0,7.746890187E-3,3.356358111E-1,-1.559915543E-1,3.701955929E-1
6.968881927E0,-1.453778148E-2,3.563109636E-1,-2.325716019E-1,4.257445242E-1
6.973436041E0,-3.244190663E-2,4.100423753E-1,-3.161830902E-1,5.188053329E-1
6.977989375E0,-6.297909468E-2,4.084196985E-1,-4.068212509E-1,5.798935649E-1
6.982541927E0,-7.039571553E-2,4.255980253E-1,-4.327850342E-1,6.110581983E-1
6.987095364E0,-1.002855599E-1,4.160387516E-1,-4.658508301E-1,6.325839330E-1
6.991649427E0,-1.242187768E-1,4.108436704E-1,-4.510440826E-1,6.226263651E-1
6.996202812E0,-1.554368287E-1,4.140544534E-1,-4.426221848E-1,6.257124711E-1
7.000755364E0,-2.089992166E-1,4.046239257E-1,-4.176292419E-1,6.179121115E-1
7.005308802E0,-2.634681761E-1,4.345895946E-1,-3.643360138E-1,6.253193796E-1
7.009862864E0,-3.021778762E-1,4.509847760E-1,-2.853422165E-1,6.132853476E-1
7.014416250E0,-3.490984738E-1,4.657320380E-1,-2.212038040E-1,6.226613835E-1
7.018968802E0,-3.923514187E-1,4.646073580E-1,-2.026424408E-1,6.409864208E-1
7.023522187E0,-4.081308246E-1,4.503300190E-1,-2.055568695E-1,6.415773707E-1
7.028076302E0,-3.941310942E-1,4.208523035E-1,-2.321424484E-1,6.215674518E-1
7.032629635E0,-3.835480213E-1,3.978753984E-1,-2.513580322E-1,6.071200686E-1
7.037182239E0,-3.332613409E-1,3.626872301E-1,-2.680187225E-1,5.607487707E-1
7.041735625E0,-3.240092695E-1,3.892712593E-1,-2.821512222E-1,5.797615305E-1
7.046289739E0,-2.839915156E-1,3.706045151E-1,-3.198881149E-1,5.659746404E-1
7.050843073E0,-2.488400191E-1,3.927074969E-1,-3.240890503E-1,5.667223710E-1
7.055395677E0,-2.467714399E-1,4.244471192E-1,-3.377475739E-1,5.959235893E-1
7.059949062E0,-2.015211582E-1,4.373204708E-1,-3.180723190E-1,5.770874904E-1
7.064503177E0,-1.823082566E-1,4.291670322E-1,-2.629747391E-1,5.353282688E-1
7.069056510E0,-1.462550908E-1,4.333305061E-1,-2.486801147E-1,5.205839784E-1
7.073609062E0,-1.124833077E-1,4.046235383E-1,-2.273893356E-1,4.775757659E-1
7.078162500E0,-1.165106222E-1,3.789110780E-1,-2.086553574E-1,4.479792275E-1
7.082716562E0,-9.627726674E-2,3.513685763E-1,-2.066926956E-1,4.188687848E-1
7.087269948E0,-9.718617052E-2,3.361951709E-1,-1.905117035E-1,3.984558367E-1
7.091822500E0,-1.120557487E-1,3.093418479E-1,-1.863269806E-1,3.781092612E-1
7.096375937E0,-1.409381330E-1,3.111880720E-1,-1.845426559E-1,3.882751155E-1
7.100930000E0,-1.580484062E-1,2.631354034E-1,-1.732749939E-1,3.524822871E-1
7.105483385E0,-1.733023524E-1,2.249227762E-1,-1.597261429E-1,3.257858213E-1
7.110035937E0,-1.939426064E-1,1.941487789E-1,-1.795129776E-1,3.279213199E-1
7.114589375E0,-1.722499728E-1,1.589387655E-1,-1.682891846E-1,2.885356719E-1
7.119143437E0,-1.605109572E-1,1.239669323E-1,-1.713933945E-1,2.655320383E-1
7.123696823E0,-1.370735019E-1,1.177066863E-1,-1.673469543E-1,2.462702013E-1
7.128249375E0,-1.234430149E-1,1.280007064E-1,-1.467151642E-1,2.305378454E-1
7.132802760E0,-1.195354164E-1,1.454339027E-1,-1.333789825E-1,2.307156016E-1
7.137356875E0,-1.015874743E-1,1.629377306E-1,-1.367712021E-1,2.357436758E-1
7.141910208E0,-6.750051677E-2,1.617468596E-1,-1.543941498E-1,2.335720870E-1
7.146462812E0,-3.395726532E-2,1.208242774E-1,-1.790170670E-1,2.186291658E-1
7.151016198E0,1.345924288E-2,9.529411793E-2,-1.655073166E-1,1.914544123E-1
7.155570312E0,7.491128147E-2,3.061529994E-2,-1.450366974E-1,1.660862435E-1
7.160123646E0,1.173310205E-1,-2.057433128E-2,-9.156703949E-2,1.502477761E-1
7.164676250E0,1.813203692E-1,-3.719437122E-2,-7.735252380E-3,1.852574740E-1
7.169229635E0,2.385404408E-1,-7.891047001E-2,9.671688080E-2,2.692258517E-1
7.173783750E0,2.844014764E-1,-9.120789170E-2,1.884145737E-1,3.531333046E-1
7.178337083E0,2.906171679E-1,-1.005976498E-1,2.389974594E-1,3.894842886E-1
7.182889687E0,1.910097599E-1,-5.501031876E-2,2.440690994E-1,3.147706925E-1
7.187443073E0,5.720708519E-2,6.407877803E-2,2.158699036E-1,2.323328553E-1
7.191997187E0,-7.826297730E-2,2.610185146E-1,1.736412048E-1,3.231207617E-1
7.196550521E0,-1.568606943E-1,4.051943719E-1,1.269559860E-1,4.526649742E-1
7.201103073E0,-1.582236588E-1,4.571430087E-1,4.972267151E-2,4.862990856E-1
7.205656510E0,-1.042770818E-1,3.919701874E-1,1.496315002E-3,4.056064306E-1
7.210210625E0,9.495496750E-3,2.913872600E-1,-3.694438934E-2,2.938734211E-1
7.214763958E0,1.564495116E-1,2.030371726E-1,7.887840271E-3,2.564425104E-1
7.219316510E0,2.840566337E-1,1.479567885E-1,1.115903854E-1,3.391633774E-1
7.223869948E0,3.828732669E-1,1.518111527E-1,2.926683426E-1,5.052655969E-1
7.228424062E0,4.197041392E-1,1.568348110E-1,4.555864334E-1,6.389896093E-1
7.232977396E0,4.401464462E-1,1.555665731E-1,6.266202927E-1,7.813980061E-1
7.237529948E0,4.824601412E-1,1.027538478E-1,7.558946609E-1,9.026089295E-1
7.242083385E0,5.467206836E-1,4.833206534E-2,8.912391663E-1,1.046683689E0
7.246637448E0,6.566256285E-1,-8.627009392E-2,1.034996986E0,1.228746722E0
7.251190833E0,7.145983577E-1,-2.816334367E-1,1.172877312E0,1.402001924E0
7.255743385E0,8.068016171E-1,-4.187794924E-1,1.269351006E0,1.561267782E0
7.260296823E0,8.788930774E-1,-5.720812082E-1,1.369859695E0,1.725179856E0
7.264850885E0,9.055202007E-1,-7.036079168E-1,1.438780785E0,1.839869854E0
7.269404271E0,9.088447690E-1,-7.973183990E-1,1.450276375E0,1.888125262E0
7.273956823E0,9.249199629E-1,-8.940842152E-1,1.466510773E0,1.950773531E0
7.278510260E0,9.041845202E-1,-9.607617855E-1,1.420989990E0,1.939026923E0
7.283064323E0,8.425268531E-1,-1.004713655E0,1.318954468E0,1.859823087E0
7.287617708E0,7.927724123E-1,-1.004765630E0,1.146615982E0,1.718362674E0
7.292170260E0,7.029010057E-1,-9.756751060E-1,9.970855713E-1,1.562111191E0
7.296723646E0,6.231949329E-1,-8.533292413E-1,7.704925537E-1,1.307746724E0
7.301277760E0,5.083333254E-1,-7.450033426E-1,5.457696915E-1,1.054180870E0
7.305831146E0,3.939917088E-1,-5.981484652E-1,3.086595535E-1,7.799242097E-1
7.310383698E0,2.702991962E-1,-4.769319296E-1,8.774280548E-2,5.551797194E-1
7.314937083E0,1.822593957E-1,-3.473659754E-1,-1.503448486E-1,4.201013945E-1
